SessionID	TreatmentNumber	Table	Period	Subject	ClientNumber	LastClientNumber	Group	Profit	TotalProfit	Participate	LeaveStage
260206_1528	100	subjects	1	1	50	0	1	0	0	1	0
SessionID	TreatmentNumber	Table	Period	Subject	ClientNumber	LastClientNumber	Group	Profit	TotalProfit	Participate	LeaveStage	EVAlgorithm	PrefAlgorithm	AlgorithmChoice	ProlificID	Captcha5	Consent	BotCheck2	BotCheck1	BotCheck1x	BotCheck1y	Delegate	Option	StartTimeOfExperiment	TimeOKWelcomeOK	TimeOKCaptcha1OK	TimeOKOutOK	TimeContinueOverview1OK	TimeConfirmOverview2OK	TimeOKOut2OK	BotCheck1attempt	BotWarning	TimeOKBotCheck2OK	TimeOKOut3OK	TimeContinueInstructionsPart1aOK	TimeContinueInstructionsPart1bOK	TimeContinueInstructionsPart1cOK	CompQ205	CompQ10	CompQ3	auxPage	TimeNextComprehensionQsOK	TimeBackComprehensionQsOK	TimeContinueComprehensionQsOK	Part1CQsPassedOnAttempt	CompQ3a	CompQ205a	CompQ10a	TimeOKComprehensionQsReplayOK	TimeNextComprehensionQsReplayOK	TimeBackComprehensionQsReplayOK	Screen	Warning	i	OptionsetID	OrderNumber	Up	Confident	TimeOKPart1OK	TimeNextPart1OK	ConfidentPart1	SatisfiedPart1	TimeOKInstructionsPart2aOK	TimeContinueInstructionsPart2bOK	TimeContinueInstructionsPart2cOK	TimeContinueInstructionsPart2dOK	CompQ1	CompQ2	CompQ1b	CompQ0	TimeNextComprehensionQsP2OK	TimeBackComprehensionQsP2OK	TimeContinueComprehensionQsP2OK	Part2CQsPassedOnAttempt	CompQ1a	CompQ2a	CompQ1ba	CompQ0a	TimeNextComprehensionQsP2ReplayOK	TimeBackComprehensionQsP2ReplayOK	TimeContinueComprehensionQsP2ReplayOK	TimeContinueIntroPart2OK	NthDecision	TimedOutDelegationChoice	TimedOutOptionChoice	SatisfactionRating	l	aux_switch1	DelegateA[1]	DelegateA[2]	DelegateA[3]	DelegateA[4]	DelegateA[5]	DelegateA[6]	DelegateA[7]	DelegateA[8]	TimedOutOptionChoiceA[1]	TimedOutOptionChoiceA[2]	TimedOutOptionChoiceA[3]	TimedOutOptionChoiceA[4]	TimedOutOptionChoiceA[5]	TimedOutOptionChoiceA[6]	TimedOutOptionChoiceA[7]	TimedOutOptionChoiceA[8]	OptionsetIDA[1]	OptionsetIDA[2]	OptionsetIDA[3]	OptionsetIDA[4]	OptionsetIDA[5]	OptionsetIDA[6]	OptionsetIDA[7]	OptionsetIDA[8]	OptionA[1]	OptionA[2]	OptionA[3]	OptionA[4]	OptionA[5]	OptionA[6]	OptionA[7]	OptionA[8]	TimedOutOptionChocie	auxSwitch	TimeContinuePart2OK	TimeOKPart2OK	DelegateHyp10	TimeNextHypothetic10OK	ProbOfBadComputerChoices	ProbOfAbsurdComputerChoices	ComputerRiskTaking	TimeNextReasonsForHypDelegationChoiceOK	DontTrust	BetterJob	HowExactly	MoreInfo	Responsibility4Choice	Responsibility4Outcome	DislikeRelyingOn	Reactance2Analysis	PerformanceCuriosity	Tedious	Other	OtherText	TimeNextReasonsForHypDelegationChoice2OK	RiskTaking	FinMarketExperience	FinanciallyResponsible	AIXperience	TimeNextQaire1OK	Female	Age	Education	HHIncome	TimeNextQaire2OK	Reliable	AIUsageInStudy	TimeNextQaire3OK	AIWasUsed4	TimeNextQaire3aOK	Manx	TimeNextQaire4FALSEOK	RandomPeriod	RelevantPayoff	Feedback	TimeProceedTHANKYOUOK	TotalSecondsInExperiment
260206_1528	101	subjects	1	1	50	0	1	0	0	1	0	1	0	0	"67c83488e67b25dcb923d96d"	3	-1	-1	-1	-1	-1	-1	-1	0	99999	99999	31	0	0	0	0	0	0	0	0	0	0	-99	-99	-99	1	0	0	0	0	-99	-99	-99	0	0	0	1	-99	9	4	0	0	0	0	0	-99	-99	0	0	0	0	-99	-99	-99	-99	0	0	0	0	-99	-99	-99	-99	0	0	0	0	1	1	1	-99	0	1	0	0	0	0	0	0	0	0	0	0	0	0	0	0	0	0	0	0	0	0	0	0	0	0	0	0	0	0	0	0	0	0	0	0	0	0	-99	0	0	0	0	0	0	0	0	0	0	0	0	0	0	0	0	""	0	0	0	0	0	0	0	0	0	0	0	-99	-99	0	""	0	""	0	6	-99	""	0	0
260206_1528	101	subjects	1	1	50	0	1	0	0	1	1	1	0	0	"67c83488e67b25dcb923d96d"	3	-1	-1	-1	-1	-1	-1	-1	0	99999	99999	31	0	0	0	0	0	0	0	0	0	0	-99	-99	-99	1	0	0	0	0	-99	-99	-99	0	0	0	1	-99	9	4	0	0	0	0	0	-99	-99	0	0	0	0	-99	-99	-99	-99	0	0	0	0	-99	-99	-99	-99	0	0	0	0	1	1	1	-99	0	1	0	0	0	0	0	0	0	0	0	0	0	0	0	0	0	0	0	0	0	0	0	0	0	0	0	0	0	0	0	0	0	0	0	0	0	0	-99	0	0	0	0	0	0	0	0	0	0	0	0	0	0	0	0	""	0	0	0	0	0	0	0	0	0	0	0	-99	-99	0	""	0	""	0	6	-99	""	0	0
SessionID	TreatmentNumber	Table	Period	Subject	ClientNumber	LastClientNumber	Group	Profit	TotalProfit	Participate	LeaveStage
260206_1528	102	subjects	1	1	51	0	1	0	0	1	0
SessionID	TreatmentNumber	Table	Period	Subject	ClientNumber	LastClientNumber	Group	Profit	TotalProfit	Participate	LeaveStage	EVAlgorithm	PrefAlgorithm	AlgorithmChoice	ProlificID	Captcha5	Consent	BotCheck2	BotCheck1	BotCheck1x	BotCheck1y	Delegate	Option	StartTimeOfExperiment	TimeOKWelcomeOK	TimeOKCaptcha1OK	TimeOKOutOK	TimeContinueOverview1OK	TimeConfirmOverview2OK	TimeOKOut2OK	BotCheck1attempt	BotWarning	TimeOKBotCheck2OK	TimeOKOut3OK	TimeContinueInstructionsPart1aOK	TimeContinueInstructionsPart1bOK	TimeContinueInstructionsPart1cOK	CompQ205	CompQ10	CompQ3	auxPage	TimeNextComprehensionQsOK	TimeBackComprehensionQsOK	TimeContinueComprehensionQsOK	Part1CQsPassedOnAttempt	CompQ3a	CompQ205a	CompQ10a	TimeOKComprehensionQsReplayOK	TimeNextComprehensionQsReplayOK	TimeBackComprehensionQsReplayOK	Screen	Warning	i	OptionsetID	OrderNumber	Up	Confident	TimeOKPart1OK	TimeNextPart1OK	ConfidentPart1	SatisfiedPart1	TimeOKInstructionsPart2aOK	TimeContinueInstructionsPart2bOK	TimeContinueInstructionsPart2cOK	TimeContinueInstructionsPart2dOK	CompQ1	CompQ2	CompQ1b	CompQ0	TimeNextComprehensionQsP2OK	TimeBackComprehensionQsP2OK	TimeContinueComprehensionQsP2OK	Part2CQsPassedOnAttempt	CompQ1a	CompQ2a	CompQ1ba	CompQ0a	TimeNextComprehensionQsP2ReplayOK	TimeBackComprehensionQsP2ReplayOK	TimeContinueComprehensionQsP2ReplayOK	TimeContinueIntroPart2OK	NthDecision	TimedOutDelegationChoice	TimedOutOptionChoice	SatisfactionRating	l	aux_switch1	DelegateA[1]	DelegateA[2]	DelegateA[3]	DelegateA[4]	DelegateA[5]	DelegateA[6]	DelegateA[7]	DelegateA[8]	TimedOutOptionChoiceA[1]	TimedOutOptionChoiceA[2]	TimedOutOptionChoiceA[3]	TimedOutOptionChoiceA[4]	TimedOutOptionChoiceA[5]	TimedOutOptionChoiceA[6]	TimedOutOptionChoiceA[7]	TimedOutOptionChoiceA[8]	OptionsetIDA[1]	OptionsetIDA[2]	OptionsetIDA[3]	OptionsetIDA[4]	OptionsetIDA[5]	OptionsetIDA[6]	OptionsetIDA[7]	OptionsetIDA[8]	OptionA[1]	OptionA[2]	OptionA[3]	OptionA[4]	OptionA[5]	OptionA[6]	OptionA[7]	OptionA[8]	TimedOutOptionChocie	auxSwitch	TimeContinuePart2OK	TimeOKPart2OK	DelegateHyp10	TimeNextHypothetic10OK	ProbOfBadComputerChoices	ProbOfAbsurdComputerChoices	ComputerRiskTaking	TimeNextReasonsForHypDelegationChoiceOK	DontTrust	BetterJob	HowExactly	MoreInfo	Responsibility4Choice	Responsibility4Outcome	DislikeRelyingOn	Reactance2Analysis	PerformanceCuriosity	Tedious	Other	OtherText	TimeNextReasonsForHypDelegationChoice2OK	RiskTaking	FinMarketExperience	FinanciallyResponsible	AIXperience	TimeNextQaire1OK	Female	Age	Education	HHIncome	TimeNextQaire2OK	Reliable	AIUsageInStudy	TimeNextQaire3OK	AIWasUsed4	TimeNextQaire3aOK	Manx	TimeNextQaire4FALSEOK	RandomPeriod	RelevantPayoff	Feedback	TimeProceedTHANKYOUOK	TotalSecondsInExperiment
260206_1528	103	subjects	1	1	51	0	1	0	0	1	0	1	0	0	"59e65d85c0d35a0001295175"	5	1	2	-1	51.85363701335545	-0.01621617497624578	-1	-1	0	99999	99999	0	99999	99999	0	1	0	99999	0	99999	99999	99999	205	10	3	2	99999	0	99999	1	-99	-99	-99	0	0	0	0	-99	9	0	1	1	9	99999	99999	-99	7	99999	99999	99999	99999	1	2	8	0	99999	0	99999	0	0	2	8	0	99999	0	99999	99999	9	1	0	-99	18	-99	0	0	0	1	0	0	1	1	1	1	1	0	0	1	0	0	3	4	7	1	5	6	2	8	7	2	-1	3	5	5	5	4	1	-99	99999	99999	1	99999	7	3	8	99999	0	1	0	1	1	0	0	0	0	0	0	""	99999	7	4	7	7	99999	1	43	5	75	99999	7	0	99999	""	0	""	0	8	330	""	99999	0
SessionID	TreatmentNumber	Table	Period	Subject	ClientNumber	LastClientNumber	Group	Profit	TotalProfit	Participate	LeaveStage
260206_1528	104	subjects	1	1	52	0	1	0	0	1	0
SessionID	TreatmentNumber	Table	Period	Subject	ClientNumber	LastClientNumber	Group	Profit	TotalProfit	Participate	LeaveStage	EVAlgorithm	PrefAlgorithm	AlgorithmChoice	ProlificID	Captcha5	Consent	BotCheck2	BotCheck1	BotCheck1x	BotCheck1y	Delegate	Option	StartTimeOfExperiment	TimeOKWelcomeOK	TimeOKCaptcha1OK	TimeOKOutOK	TimeContinueOverview1OK	TimeConfirmOverview2OK	TimeOKOut2OK	BotCheck1attempt	BotWarning	TimeOKBotCheck2OK	TimeOKOut3OK	TimeContinueInstructionsPart1aOK	TimeContinueInstructionsPart1bOK	TimeContinueInstructionsPart1cOK	CompQ205	CompQ10	CompQ3	auxPage	TimeNextComprehensionQsOK	TimeBackComprehensionQsOK	TimeContinueComprehensionQsOK	Part1CQsPassedOnAttempt	CompQ3a	CompQ205a	CompQ10a	TimeOKComprehensionQsReplayOK	TimeNextComprehensionQsReplayOK	TimeBackComprehensionQsReplayOK	Screen	Warning	i	OptionsetID	OrderNumber	Up	Confident	TimeOKPart1OK	TimeNextPart1OK	ConfidentPart1	SatisfiedPart1	TimeOKInstructionsPart2aOK	TimeContinueInstructionsPart2bOK	TimeContinueInstructionsPart2cOK	TimeContinueInstructionsPart2dOK	CompQ1	CompQ2	CompQ1b	CompQ0	TimeNextComprehensionQsP2OK	TimeBackComprehensionQsP2OK	TimeContinueComprehensionQsP2OK	Part2CQsPassedOnAttempt	CompQ1a	CompQ2a	CompQ1ba	CompQ0a	TimeNextComprehensionQsP2ReplayOK	TimeBackComprehensionQsP2ReplayOK	TimeContinueComprehensionQsP2ReplayOK	TimeContinueIntroPart2OK	NthDecision	TimedOutDelegationChoice	TimedOutOptionChoice	SatisfactionRating	l	aux_switch1	DelegateA[1]	DelegateA[2]	DelegateA[3]	DelegateA[4]	DelegateA[5]	DelegateA[6]	DelegateA[7]	DelegateA[8]	TimedOutOptionChoiceA[1]	TimedOutOptionChoiceA[2]	TimedOutOptionChoiceA[3]	TimedOutOptionChoiceA[4]	TimedOutOptionChoiceA[5]	TimedOutOptionChoiceA[6]	TimedOutOptionChoiceA[7]	TimedOutOptionChoiceA[8]	OptionsetIDA[1]	OptionsetIDA[2]	OptionsetIDA[3]	OptionsetIDA[4]	OptionsetIDA[5]	OptionsetIDA[6]	OptionsetIDA[7]	OptionsetIDA[8]	OptionA[1]	OptionA[2]	OptionA[3]	OptionA[4]	OptionA[5]	OptionA[6]	OptionA[7]	OptionA[8]	TimedOutOptionChocie	auxSwitch	TimeContinuePart2OK	TimeOKPart2OK	DelegateHyp10	TimeNextHypothetic10OK	ProbOfBadComputerChoices	ProbOfAbsurdComputerChoices	ComputerRiskTaking	TimeNextReasonsForHypDelegationChoiceOK	DontTrust	BetterJob	HowExactly	MoreInfo	Responsibility4Choice	Responsibility4Outcome	DislikeRelyingOn	Reactance2Analysis	PerformanceCuriosity	Tedious	Other	OtherText	TimeNextReasonsForHypDelegationChoice2OK	RiskTaking	FinMarketExperience	FinanciallyResponsible	AIXperience	TimeNextQaire1OK	Female	Age	Education	HHIncome	TimeNextQaire2OK	Reliable	AIUsageInStudy	TimeNextQaire3OK	AIWasUsed4	TimeNextQaire3aOK	Manx	TimeNextQaire4FALSEOK	RandomPeriod	RelevantPayoff	Feedback	TimeProceedTHANKYOUOK	TotalSecondsInExperiment
260206_1528	105	subjects	1	1	52	0	1	0	0	1	0	0	1	0	"5eb53966bcc7ec02d9dab736"	5	1	2	-1	53.98589852233651	0.02102467983583856	-1	-1	0	99999	99999	0	99999	99999	0	1	0	99999	0	99999	99999	99999	205	10	3	1	99999	0	99999	1	-99	-99	-99	0	0	0	0	-99	9	0	1	1	5	99999	99999	-99	5	99999	99999	99999	99999	1	2	1	0	99999	0	99999	1	-99	-99	-99	-99	0	0	0	99999	9	1	0	-99	18	-99	1	1	1	1	1	1	1	1	0	0	0	0	0	0	0	0	7	1	6	2	4	3	5	8	4	6	5	5	8	2	8	4	1	0	99999	99999	1	99999	4	2	5	99999	1	1	0	0	0	0	0	0	0	0	0	""	99999	5	4	6	5	99999	1	43	4	-1	99999	7	0	99999	""	0	""	0	6	0	""	99999	0
SessionID	TreatmentNumber	Table	Period	Subject	ClientNumber	LastClientNumber	Group	Profit	TotalProfit	Participate	LeaveStage
260206_1528	106	subjects	1	1	53	0	1	0	0	1	0
SessionID	TreatmentNumber	Table	Period	Subject	ClientNumber	LastClientNumber	Group	Profit	TotalProfit	Participate	LeaveStage	EVAlgorithm	PrefAlgorithm	AlgorithmChoice	ProlificID	Captcha5	Consent	BotCheck2	BotCheck1	BotCheck1x	BotCheck1y	Delegate	Option	StartTimeOfExperiment	TimeOKWelcomeOK	TimeOKCaptcha1OK	TimeOKOutOK	TimeContinueOverview1OK	TimeConfirmOverview2OK	TimeOKOut2OK	BotCheck1attempt	BotWarning	TimeOKBotCheck2OK	TimeOKOut3OK	TimeContinueInstructionsPart1aOK	TimeContinueInstructionsPart1bOK	TimeContinueInstructionsPart1cOK	CompQ205	CompQ10	CompQ3	auxPage	TimeNextComprehensionQsOK	TimeBackComprehensionQsOK	TimeContinueComprehensionQsOK	Part1CQsPassedOnAttempt	CompQ3a	CompQ205a	CompQ10a	TimeOKComprehensionQsReplayOK	TimeNextComprehensionQsReplayOK	TimeBackComprehensionQsReplayOK	Screen	Warning	i	OptionsetID	OrderNumber	Up	Confident	TimeOKPart1OK	TimeNextPart1OK	ConfidentPart1	SatisfiedPart1	TimeOKInstructionsPart2aOK	TimeContinueInstructionsPart2bOK	TimeContinueInstructionsPart2cOK	TimeContinueInstructionsPart2dOK	CompQ1	CompQ2	CompQ1b	CompQ0	TimeNextComprehensionQsP2OK	TimeBackComprehensionQsP2OK	TimeContinueComprehensionQsP2OK	Part2CQsPassedOnAttempt	CompQ1a	CompQ2a	CompQ1ba	CompQ0a	TimeNextComprehensionQsP2ReplayOK	TimeBackComprehensionQsP2ReplayOK	TimeContinueComprehensionQsP2ReplayOK	TimeContinueIntroPart2OK	NthDecision	TimedOutDelegationChoice	TimedOutOptionChoice	SatisfactionRating	l	aux_switch1	DelegateA[1]	DelegateA[2]	DelegateA[3]	DelegateA[4]	DelegateA[5]	DelegateA[6]	DelegateA[7]	DelegateA[8]	TimedOutOptionChoiceA[1]	TimedOutOptionChoiceA[2]	TimedOutOptionChoiceA[3]	TimedOutOptionChoiceA[4]	TimedOutOptionChoiceA[5]	TimedOutOptionChoiceA[6]	TimedOutOptionChoiceA[7]	TimedOutOptionChoiceA[8]	OptionsetIDA[1]	OptionsetIDA[2]	OptionsetIDA[3]	OptionsetIDA[4]	OptionsetIDA[5]	OptionsetIDA[6]	OptionsetIDA[7]	OptionsetIDA[8]	OptionA[1]	OptionA[2]	OptionA[3]	OptionA[4]	OptionA[5]	OptionA[6]	OptionA[7]	OptionA[8]	TimedOutOptionChocie	auxSwitch	TimeContinuePart2OK	TimeOKPart2OK	DelegateHyp10	TimeNextHypothetic10OK	ProbOfBadComputerChoices	ProbOfAbsurdComputerChoices	ComputerRiskTaking	TimeNextReasonsForHypDelegationChoiceOK	DontTrust	BetterJob	HowExactly	MoreInfo	Responsibility4Choice	Responsibility4Outcome	DislikeRelyingOn	Reactance2Analysis	PerformanceCuriosity	Tedious	Other	OtherText	TimeNextReasonsForHypDelegationChoice2OK	RiskTaking	FinMarketExperience	FinanciallyResponsible	AIXperience	TimeNextQaire1OK	Female	Age	Education	HHIncome	TimeNextQaire2OK	Reliable	AIUsageInStudy	TimeNextQaire3OK	AIWasUsed4	TimeNextQaire3aOK	Manx	TimeNextQaire4FALSEOK	RandomPeriod	RelevantPayoff	Feedback	TimeProceedTHANKYOUOK	TotalSecondsInExperiment
260206_1528	107	subjects	1	1	53	0	1	0	0	1	0	1	0	0	"5829f8eed7e5ff0001ff7d8d"	5	1	2	-1	53.05263157894737	-0.002873563218390829	-1	-1	0	99999	99999	0	99999	99999	0	1	0	99999	0	99999	99999	99999	205	10	3	2	99999	0	99999	1	-99	-99	-99	0	0	0	0	-99	9	0	2	0	8	99999	99999	-99	8	99999	99999	99999	99999	1	2	8	0	99999	0	99999	2	1	2	1	0	99999	0	99999	99999	9	1	0	-99	18	-99	1	0	1	0	1	1	0	1	0	0	0	0	0	0	0	0	6	7	2	3	1	5	4	8	5	6	5	6	3	8	3	4	1	-99	99999	99999	1	99999	7	1	5	99999	0	1	0	0	0	0	0	0	1	0	0	""	99999	7	7	10	6	99999	0	67	4	25	99999	7	0	99999	""	0	""	0	1	265	"I really enjoyed this study thank you"	99999	0
SessionID	TreatmentNumber	Table	Period	Subject	ClientNumber	LastClientNumber	Group	Profit	TotalProfit	Participate	LeaveStage
260206_1528	108	subjects	1	1	54	0	1	0	0	1	0
SessionID	TreatmentNumber	Table	Period	Subject	ClientNumber	LastClientNumber	Group	Profit	TotalProfit	Participate	LeaveStage	EVAlgorithm	PrefAlgorithm	AlgorithmChoice	ProlificID	Captcha5	Consent	BotCheck2	BotCheck1	BotCheck1x	BotCheck1y	Delegate	Option	StartTimeOfExperiment	TimeOKWelcomeOK	TimeOKCaptcha1OK	TimeOKOutOK	TimeContinueOverview1OK	TimeConfirmOverview2OK	TimeOKOut2OK	BotCheck1attempt	BotWarning	TimeOKBotCheck2OK	TimeOKOut3OK	TimeContinueInstructionsPart1aOK	TimeContinueInstructionsPart1bOK	TimeContinueInstructionsPart1cOK	CompQ205	CompQ10	CompQ3	auxPage	TimeNextComprehensionQsOK	TimeBackComprehensionQsOK	TimeContinueComprehensionQsOK	Part1CQsPassedOnAttempt	CompQ3a	CompQ205a	CompQ10a	TimeOKComprehensionQsReplayOK	TimeNextComprehensionQsReplayOK	TimeBackComprehensionQsReplayOK	Screen	Warning	i	OptionsetID	OrderNumber	Up	Confident	TimeOKPart1OK	TimeNextPart1OK	ConfidentPart1	SatisfiedPart1	TimeOKInstructionsPart2aOK	TimeContinueInstructionsPart2bOK	TimeContinueInstructionsPart2cOK	TimeContinueInstructionsPart2dOK	CompQ1	CompQ2	CompQ1b	CompQ0	TimeNextComprehensionQsP2OK	TimeBackComprehensionQsP2OK	TimeContinueComprehensionQsP2OK	Part2CQsPassedOnAttempt	CompQ1a	CompQ2a	CompQ1ba	CompQ0a	TimeNextComprehensionQsP2ReplayOK	TimeBackComprehensionQsP2ReplayOK	TimeContinueComprehensionQsP2ReplayOK	TimeContinueIntroPart2OK	NthDecision	TimedOutDelegationChoice	TimedOutOptionChoice	SatisfactionRating	l	aux_switch1	DelegateA[1]	DelegateA[2]	DelegateA[3]	DelegateA[4]	DelegateA[5]	DelegateA[6]	DelegateA[7]	DelegateA[8]	TimedOutOptionChoiceA[1]	TimedOutOptionChoiceA[2]	TimedOutOptionChoiceA[3]	TimedOutOptionChoiceA[4]	TimedOutOptionChoiceA[5]	TimedOutOptionChoiceA[6]	TimedOutOptionChoiceA[7]	TimedOutOptionChoiceA[8]	OptionsetIDA[1]	OptionsetIDA[2]	OptionsetIDA[3]	OptionsetIDA[4]	OptionsetIDA[5]	OptionsetIDA[6]	OptionsetIDA[7]	OptionsetIDA[8]	OptionA[1]	OptionA[2]	OptionA[3]	OptionA[4]	OptionA[5]	OptionA[6]	OptionA[7]	OptionA[8]	TimedOutOptionChocie	auxSwitch	TimeContinuePart2OK	TimeOKPart2OK	DelegateHyp10	TimeNextHypothetic10OK	ProbOfBadComputerChoices	ProbOfAbsurdComputerChoices	ComputerRiskTaking	TimeNextReasonsForHypDelegationChoiceOK	DontTrust	BetterJob	HowExactly	MoreInfo	Responsibility4Choice	Responsibility4Outcome	DislikeRelyingOn	Reactance2Analysis	PerformanceCuriosity	Tedious	Other	OtherText	TimeNextReasonsForHypDelegationChoice2OK	RiskTaking	FinMarketExperience	FinanciallyResponsible	AIXperience	TimeNextQaire1OK	Female	Age	Education	HHIncome	TimeNextQaire2OK	Reliable	AIUsageInStudy	TimeNextQaire3OK	AIWasUsed4	TimeNextQaire3aOK	Manx	TimeNextQaire4FALSEOK	RandomPeriod	RelevantPayoff	Feedback	TimeProceedTHANKYOUOK	TotalSecondsInExperiment
260206_1528	109	subjects	1	1	54	0	1	0	0	1	0	0	1	0	"55c495d2fdf99b2d6cabb691"	5	1	2	-1	50.74030172413793	-0.02225534539473684	-1	-1	0	99999	99999	0	99999	99999	0	1	0	99999	0	99999	99999	99999	205	10	3	2	99999	0	99999	1	-99	-99	-99	0	0	0	0	-99	9	0	1	1	4	99999	99999	-99	8	99999	99999	99999	99999	1	1	1	0	99999	0	99999	0	1	1	1	10	99999	0	99999	99999	9	1	1	-99	18	-99	0	0	0	0	0	0	0	0	0	1	1	1	1	1	1	1	5	2	7	8	6	1	3	4	5	4	4	2	5	4	6	4	1	-99	99999	99999	0	99999	5	1	5	99999	0	0	0	0	1	0	0	0	0	0	0	""	99999	2	2	3	10	99999	1	30	5	105	99999	7	0	99999	""	0	""	0	2	255	"no"	99999	0
SessionID	TreatmentNumber	Table	Period	Subject	ClientNumber	LastClientNumber	Group	Profit	TotalProfit	Participate	LeaveStage
260206_1528	10	subjects	1	1	5	0	1	0	0	1	0
SessionID	TreatmentNumber	Table	Period	Subject	ClientNumber	LastClientNumber	Group	Profit	TotalProfit	Participate	LeaveStage
260206_1528	110	subjects	1	1	55	0	1	0	0	1	0
SessionID	TreatmentNumber	Table	Period	Subject	ClientNumber	LastClientNumber	Group	Profit	TotalProfit	Participate	LeaveStage	EVAlgorithm	PrefAlgorithm	AlgorithmChoice	ProlificID	Captcha5	Consent	BotCheck2	BotCheck1	BotCheck1x	BotCheck1y	Delegate	Option	StartTimeOfExperiment	TimeOKWelcomeOK	TimeOKCaptcha1OK	TimeOKOutOK	TimeContinueOverview1OK	TimeConfirmOverview2OK	TimeOKOut2OK	BotCheck1attempt	BotWarning	TimeOKBotCheck2OK	TimeOKOut3OK	TimeContinueInstructionsPart1aOK	TimeContinueInstructionsPart1bOK	TimeContinueInstructionsPart1cOK	CompQ205	CompQ10	CompQ3	auxPage	TimeNextComprehensionQsOK	TimeBackComprehensionQsOK	TimeContinueComprehensionQsOK	Part1CQsPassedOnAttempt	CompQ3a	CompQ205a	CompQ10a	TimeOKComprehensionQsReplayOK	TimeNextComprehensionQsReplayOK	TimeBackComprehensionQsReplayOK	Screen	Warning	i	OptionsetID	OrderNumber	Up	Confident	TimeOKPart1OK	TimeNextPart1OK	ConfidentPart1	SatisfiedPart1	TimeOKInstructionsPart2aOK	TimeContinueInstructionsPart2bOK	TimeContinueInstructionsPart2cOK	TimeContinueInstructionsPart2dOK	CompQ1	CompQ2	CompQ1b	CompQ0	TimeNextComprehensionQsP2OK	TimeBackComprehensionQsP2OK	TimeContinueComprehensionQsP2OK	Part2CQsPassedOnAttempt	CompQ1a	CompQ2a	CompQ1ba	CompQ0a	TimeNextComprehensionQsP2ReplayOK	TimeBackComprehensionQsP2ReplayOK	TimeContinueComprehensionQsP2ReplayOK	TimeContinueIntroPart2OK	NthDecision	TimedOutDelegationChoice	TimedOutOptionChoice	SatisfactionRating	l	aux_switch1	DelegateA[1]	DelegateA[2]	DelegateA[3]	DelegateA[4]	DelegateA[5]	DelegateA[6]	DelegateA[7]	DelegateA[8]	TimedOutOptionChoiceA[1]	TimedOutOptionChoiceA[2]	TimedOutOptionChoiceA[3]	TimedOutOptionChoiceA[4]	TimedOutOptionChoiceA[5]	TimedOutOptionChoiceA[6]	TimedOutOptionChoiceA[7]	TimedOutOptionChoiceA[8]	OptionsetIDA[1]	OptionsetIDA[2]	OptionsetIDA[3]	OptionsetIDA[4]	OptionsetIDA[5]	OptionsetIDA[6]	OptionsetIDA[7]	OptionsetIDA[8]	OptionA[1]	OptionA[2]	OptionA[3]	OptionA[4]	OptionA[5]	OptionA[6]	OptionA[7]	OptionA[8]	TimedOutOptionChocie	auxSwitch	TimeContinuePart2OK	TimeOKPart2OK	DelegateHyp10	TimeNextHypothetic10OK	ProbOfBadComputerChoices	ProbOfAbsurdComputerChoices	ComputerRiskTaking	TimeNextReasonsForHypDelegationChoiceOK	DontTrust	BetterJob	HowExactly	MoreInfo	Responsibility4Choice	Responsibility4Outcome	DislikeRelyingOn	Reactance2Analysis	PerformanceCuriosity	Tedious	Other	OtherText	TimeNextReasonsForHypDelegationChoice2OK	RiskTaking	FinMarketExperience	FinanciallyResponsible	AIXperience	TimeNextQaire1OK	Female	Age	Education	HHIncome	TimeNextQaire2OK	Reliable	AIUsageInStudy	TimeNextQaire3OK	AIWasUsed4	TimeNextQaire3aOK	Manx	TimeNextQaire4FALSEOK	RandomPeriod	RelevantPayoff	Feedback	TimeProceedTHANKYOUOK	TotalSecondsInExperiment
260206_1528	111	subjects	1	1	55	0	1	0	0	1	0	0	1	0	"665d5a08c8e61c18498d08c9"	5	1	2	-1	52.64542079207921	-0.008849557522123908	-1	-1	0	99999	99999	0	99999	99999	0	1	0	99999	0	99999	99999	99999	205	10	3	1	99999	0	99999	1	-99	-99	-99	0	0	0	0	-99	9	0	2	1	3	99999	99999	-99	8	99999	99999	99999	99999	1	2	1	0	99999	0	99999	1	-99	-99	-99	-99	0	0	0	99999	9	1	0	-99	18	-99	1	-1	0	0	1	1	0	1	0	0	0	0	0	0	0	0	4	7	6	1	2	3	5	8	4	-1	5	4	7	7	5	4	1	-99	99999	99999	1	99999	5	5	6	99999	1	0	0	0	0	0	0	0	0	0	0	""	99999	5	6	7	5	99999	1	30	5	85	99999	7	0	99999	""	0	""	0	3	265	""	99999	0
SessionID	TreatmentNumber	Table	Period	Subject	ClientNumber	LastClientNumber	Group	Profit	TotalProfit	Participate	LeaveStage
260206_1528	112	subjects	1	1	56	0	1	0	0	1	0
SessionID	TreatmentNumber	Table	Period	Subject	ClientNumber	LastClientNumber	Group	Profit	TotalProfit	Participate	LeaveStage	EVAlgorithm	PrefAlgorithm	AlgorithmChoice	ProlificID	Captcha5	Consent	BotCheck2	BotCheck1	BotCheck1x	BotCheck1y	Delegate	Option	StartTimeOfExperiment	TimeOKWelcomeOK	TimeOKCaptcha1OK	TimeOKOutOK	TimeContinueOverview1OK	TimeConfirmOverview2OK	TimeOKOut2OK	BotCheck1attempt	BotWarning	TimeOKBotCheck2OK	TimeOKOut3OK	TimeContinueInstructionsPart1aOK	TimeContinueInstructionsPart1bOK	TimeContinueInstructionsPart1cOK	CompQ205	CompQ10	CompQ3	auxPage	TimeNextComprehensionQsOK	TimeBackComprehensionQsOK	TimeContinueComprehensionQsOK	Part1CQsPassedOnAttempt	CompQ3a	CompQ205a	CompQ10a	TimeOKComprehensionQsReplayOK	TimeNextComprehensionQsReplayOK	TimeBackComprehensionQsReplayOK	Screen	Warning	i	OptionsetID	OrderNumber	Up	Confident	TimeOKPart1OK	TimeNextPart1OK	ConfidentPart1	SatisfiedPart1	TimeOKInstructionsPart2aOK	TimeContinueInstructionsPart2bOK	TimeContinueInstructionsPart2cOK	TimeContinueInstructionsPart2dOK	CompQ1	CompQ2	CompQ1b	CompQ0	TimeNextComprehensionQsP2OK	TimeBackComprehensionQsP2OK	TimeContinueComprehensionQsP2OK	Part2CQsPassedOnAttempt	CompQ1a	CompQ2a	CompQ1ba	CompQ0a	TimeNextComprehensionQsP2ReplayOK	TimeBackComprehensionQsP2ReplayOK	TimeContinueComprehensionQsP2ReplayOK	TimeContinueIntroPart2OK	NthDecision	TimedOutDelegationChoice	TimedOutOptionChoice	SatisfactionRating	l	aux_switch1	DelegateA[1]	DelegateA[2]	DelegateA[3]	DelegateA[4]	DelegateA[5]	DelegateA[6]	DelegateA[7]	DelegateA[8]	TimedOutOptionChoiceA[1]	TimedOutOptionChoiceA[2]	TimedOutOptionChoiceA[3]	TimedOutOptionChoiceA[4]	TimedOutOptionChoiceA[5]	TimedOutOptionChoiceA[6]	TimedOutOptionChoiceA[7]	TimedOutOptionChoiceA[8]	OptionsetIDA[1]	OptionsetIDA[2]	OptionsetIDA[3]	OptionsetIDA[4]	OptionsetIDA[5]	OptionsetIDA[6]	OptionsetIDA[7]	OptionsetIDA[8]	OptionA[1]	OptionA[2]	OptionA[3]	OptionA[4]	OptionA[5]	OptionA[6]	OptionA[7]	OptionA[8]	TimedOutOptionChocie	auxSwitch	TimeContinuePart2OK	TimeOKPart2OK	DelegateHyp10	TimeNextHypothetic10OK	ProbOfBadComputerChoices	ProbOfAbsurdComputerChoices	ComputerRiskTaking	TimeNextReasonsForHypDelegationChoiceOK	DontTrust	BetterJob	HowExactly	MoreInfo	Responsibility4Choice	Responsibility4Outcome	DislikeRelyingOn	Reactance2Analysis	PerformanceCuriosity	Tedious	Other	OtherText	TimeNextReasonsForHypDelegationChoice2OK	RiskTaking	FinMarketExperience	FinanciallyResponsible	AIXperience	TimeNextQaire1OK	Female	Age	Education	HHIncome	TimeNextQaire2OK	Reliable	AIUsageInStudy	TimeNextQaire3OK	AIWasUsed4	TimeNextQaire3aOK	Manx	TimeNextQaire4FALSEOK	RandomPeriod	RelevantPayoff	Feedback	TimeProceedTHANKYOUOK	TotalSecondsInExperiment
260206_1528	113	subjects	1	1	56	0	1	0	0	1	0	1	0	0	"666c50576894ee3e6696af53"	5	1	2	-1	50.52874987638449	-0.011346653529575867	-1	-1	0	99999	99999	0	99999	99999	0	1	0	99999	0	99999	99999	99999	0	25	3	1	99999	0	99999	2	3	205	10	99999	99999	0	0	-99	9	0	1	0	9	99999	99999	-99	8	99999	99999	99999	99999	1	2	1	0	99999	0	99999	1	-99	-99	-99	-99	0	0	0	99999	9	1	0	-99	18	-99	1	0	1	0	1	0	0	1	0	1	0	0	0	0	1	0	5	7	2	8	3	6	1	4	8	5	5	6	2	6	8	8	1	-99	99999	99999	0	99999	4	5	5	99999	0	1	0	0	1	1	0	0	0	0	0	""	99999	9	8	5	9	99999	0	23	4	45	99999	7	0	99999	""	0	""	0	3	0	""	99999	0
SessionID	TreatmentNumber	Table	Period	Subject	ClientNumber	LastClientNumber	Group	Profit	TotalProfit	Participate	LeaveStage
260206_1528	114	subjects	1	1	57	0	1	0	0	1	0
SessionID	TreatmentNumber	Table	Period	Subject	ClientNumber	LastClientNumber	Group	Profit	TotalProfit	Participate	LeaveStage	EVAlgorithm	PrefAlgorithm	AlgorithmChoice	ProlificID	Captcha5	Consent	BotCheck2	BotCheck1	BotCheck1x	BotCheck1y	Delegate	Option	StartTimeOfExperiment	TimeOKWelcomeOK	TimeOKCaptcha1OK	TimeOKOutOK	TimeContinueOverview1OK	TimeConfirmOverview2OK	TimeOKOut2OK	BotCheck1attempt	BotWarning	TimeOKBotCheck2OK	TimeOKOut3OK	TimeContinueInstructionsPart1aOK	TimeContinueInstructionsPart1bOK	TimeContinueInstructionsPart1cOK	CompQ205	CompQ10	CompQ3	auxPage	TimeNextComprehensionQsOK	TimeBackComprehensionQsOK	TimeContinueComprehensionQsOK	Part1CQsPassedOnAttempt	CompQ3a	CompQ205a	CompQ10a	TimeOKComprehensionQsReplayOK	TimeNextComprehensionQsReplayOK	TimeBackComprehensionQsReplayOK	Screen	Warning	i	OptionsetID	OrderNumber	Up	Confident	TimeOKPart1OK	TimeNextPart1OK	ConfidentPart1	SatisfiedPart1	TimeOKInstructionsPart2aOK	TimeContinueInstructionsPart2bOK	TimeContinueInstructionsPart2cOK	TimeContinueInstructionsPart2dOK	CompQ1	CompQ2	CompQ1b	CompQ0	TimeNextComprehensionQsP2OK	TimeBackComprehensionQsP2OK	TimeContinueComprehensionQsP2OK	Part2CQsPassedOnAttempt	CompQ1a	CompQ2a	CompQ1ba	CompQ0a	TimeNextComprehensionQsP2ReplayOK	TimeBackComprehensionQsP2ReplayOK	TimeContinueComprehensionQsP2ReplayOK	TimeContinueIntroPart2OK	NthDecision	TimedOutDelegationChoice	TimedOutOptionChoice	SatisfactionRating	l	aux_switch1	DelegateA[1]	DelegateA[2]	DelegateA[3]	DelegateA[4]	DelegateA[5]	DelegateA[6]	DelegateA[7]	DelegateA[8]	TimedOutOptionChoiceA[1]	TimedOutOptionChoiceA[2]	TimedOutOptionChoiceA[3]	TimedOutOptionChoiceA[4]	TimedOutOptionChoiceA[5]	TimedOutOptionChoiceA[6]	TimedOutOptionChoiceA[7]	TimedOutOptionChoiceA[8]	OptionsetIDA[1]	OptionsetIDA[2]	OptionsetIDA[3]	OptionsetIDA[4]	OptionsetIDA[5]	OptionsetIDA[6]	OptionsetIDA[7]	OptionsetIDA[8]	OptionA[1]	OptionA[2]	OptionA[3]	OptionA[4]	OptionA[5]	OptionA[6]	OptionA[7]	OptionA[8]	TimedOutOptionChocie	auxSwitch	TimeContinuePart2OK	TimeOKPart2OK	DelegateHyp10	TimeNextHypothetic10OK	ProbOfBadComputerChoices	ProbOfAbsurdComputerChoices	ComputerRiskTaking	TimeNextReasonsForHypDelegationChoiceOK	DontTrust	BetterJob	HowExactly	MoreInfo	Responsibility4Choice	Responsibility4Outcome	DislikeRelyingOn	Reactance2Analysis	PerformanceCuriosity	Tedious	Other	OtherText	TimeNextReasonsForHypDelegationChoice2OK	RiskTaking	FinMarketExperience	FinanciallyResponsible	AIXperience	TimeNextQaire1OK	Female	Age	Education	HHIncome	TimeNextQaire2OK	Reliable	AIUsageInStudy	TimeNextQaire3OK	AIWasUsed4	TimeNextQaire3aOK	Manx	TimeNextQaire4FALSEOK	RandomPeriod	RelevantPayoff	Feedback	TimeProceedTHANKYOUOK	TotalSecondsInExperiment
260206_1528	115	subjects	1	1	57	0	1	0	0	1	0	1	0	0	"60da18693053b2c1d420085f"	5	1	2	-1	48.73684210526316	0	-1	-1	0	99999	99999	0	99999	99999	0	1	0	99999	0	99999	99999	99999	205	10	1	2	99999	99999	99999	-99	3	205	5	99999	99999	0	0	-99	9	0	2	0	7	99999	99999	-99	8	99999	99999	99999	99999	1	1	1	0	99999	0	99999	0	0	2	8	0	99999	0	99999	99999	9	1	0	-99	18	-99	0	1	0	1	1	0	1	-1	0	0	0	0	0	0	0	0	8	5	6	1	3	2	7	4	4	8	5	3	2	5	4	-1	1	-99	99999	99999	0	99999	5	3	4	99999	0	0	1	1	0	0	0	0	0	0	0	""	99999	8	1	5	2	99999	1	32	3	25	99999	6	0	99999	""	0	""	0	8	-99	""	99999	0
SessionID	TreatmentNumber	Table	Period	Subject	ClientNumber	LastClientNumber	Group	Profit	TotalProfit	Participate	LeaveStage
260206_1528	116	subjects	1	1	58	0	1	0	0	1	0
SessionID	TreatmentNumber	Table	Period	Subject	ClientNumber	LastClientNumber	Group	Profit	TotalProfit	Participate	LeaveStage	EVAlgorithm	PrefAlgorithm	AlgorithmChoice	ProlificID	Captcha5	Consent	BotCheck2	BotCheck1	BotCheck1x	BotCheck1y	Delegate	Option	StartTimeOfExperiment	TimeOKWelcomeOK	TimeOKCaptcha1OK	TimeOKOutOK	TimeContinueOverview1OK	TimeConfirmOverview2OK	TimeOKOut2OK	BotCheck1attempt	BotWarning	TimeOKBotCheck2OK	TimeOKOut3OK	TimeContinueInstructionsPart1aOK	TimeContinueInstructionsPart1bOK	TimeContinueInstructionsPart1cOK	CompQ205	CompQ10	CompQ3	auxPage	TimeNextComprehensionQsOK	TimeBackComprehensionQsOK	TimeContinueComprehensionQsOK	Part1CQsPassedOnAttempt	CompQ3a	CompQ205a	CompQ10a	TimeOKComprehensionQsReplayOK	TimeNextComprehensionQsReplayOK	TimeBackComprehensionQsReplayOK	Screen	Warning	i	OptionsetID	OrderNumber	Up	Confident	TimeOKPart1OK	TimeNextPart1OK	ConfidentPart1	SatisfiedPart1	TimeOKInstructionsPart2aOK	TimeContinueInstructionsPart2bOK	TimeContinueInstructionsPart2cOK	TimeContinueInstructionsPart2dOK	CompQ1	CompQ2	CompQ1b	CompQ0	TimeNextComprehensionQsP2OK	TimeBackComprehensionQsP2OK	TimeContinueComprehensionQsP2OK	Part2CQsPassedOnAttempt	CompQ1a	CompQ2a	CompQ1ba	CompQ0a	TimeNextComprehensionQsP2ReplayOK	TimeBackComprehensionQsP2ReplayOK	TimeContinueComprehensionQsP2ReplayOK	TimeContinueIntroPart2OK	NthDecision	TimedOutDelegationChoice	TimedOutOptionChoice	SatisfactionRating	l	aux_switch1	DelegateA[1]	DelegateA[2]	DelegateA[3]	DelegateA[4]	DelegateA[5]	DelegateA[6]	DelegateA[7]	DelegateA[8]	TimedOutOptionChoiceA[1]	TimedOutOptionChoiceA[2]	TimedOutOptionChoiceA[3]	TimedOutOptionChoiceA[4]	TimedOutOptionChoiceA[5]	TimedOutOptionChoiceA[6]	TimedOutOptionChoiceA[7]	TimedOutOptionChoiceA[8]	OptionsetIDA[1]	OptionsetIDA[2]	OptionsetIDA[3]	OptionsetIDA[4]	OptionsetIDA[5]	OptionsetIDA[6]	OptionsetIDA[7]	OptionsetIDA[8]	OptionA[1]	OptionA[2]	OptionA[3]	OptionA[4]	OptionA[5]	OptionA[6]	OptionA[7]	OptionA[8]	TimedOutOptionChocie	auxSwitch	TimeContinuePart2OK	TimeOKPart2OK	DelegateHyp10	TimeNextHypothetic10OK	ProbOfBadComputerChoices	ProbOfAbsurdComputerChoices	ComputerRiskTaking	TimeNextReasonsForHypDelegationChoiceOK	DontTrust	BetterJob	HowExactly	MoreInfo	Responsibility4Choice	Responsibility4Outcome	DislikeRelyingOn	Reactance2Analysis	PerformanceCuriosity	Tedious	Other	OtherText	TimeNextReasonsForHypDelegationChoice2OK	RiskTaking	FinMarketExperience	FinanciallyResponsible	AIXperience	TimeNextQaire1OK	Female	Age	Education	HHIncome	TimeNextQaire2OK	Reliable	AIUsageInStudy	TimeNextQaire3OK	AIWasUsed4	TimeNextQaire3aOK	Manx	TimeNextQaire4FALSEOK	RandomPeriod	RelevantPayoff	Feedback	TimeProceedTHANKYOUOK	TotalSecondsInExperiment
260206_1528	117	subjects	1	1	58	0	1	0	0	1	0	0	1	0	"657065aa0c153f5a01470d1b"	5	1	2	-1	50.33136322742372	-0.0045752431832107865	-1	-1	0	99999	99999	0	99999	99999	0	1	0	99999	0	99999	99999	99999	205	10	3	1	99999	0	99999	1	-99	-99	-99	0	0	0	0	-99	9	0	2	1	8	99999	99999	-99	7	99999	99999	99999	99999	1	2	1	0	99999	0	99999	1	-99	-99	-99	-99	0	0	0	99999	9	1	1	-99	18	-99	0	0	0	0	0	0	0	0	1	1	0	0	0	0	1	1	5	8	4	7	1	6	2	3	5	1	3	8	4	5	7	3	1	-99	99999	99999	0	99999	2	1	2	99999	0	0	0	1	1	0	0	0	0	0	0	""	99999	7	3	6	7	99999	0	71	5	55	99999	7	0	99999	""	0	""	0	5	205	"The study was clear and straightforward. "	99999	0
SessionID	TreatmentNumber	Table	Period	Subject	ClientNumber	LastClientNumber	Group	Profit	TotalProfit	Participate	LeaveStage
260206_1528	118	subjects	1	1	59	0	1	0	0	1	0
SessionID	TreatmentNumber	Table	Period	Subject	ClientNumber	LastClientNumber	Group	Profit	TotalProfit	Participate	LeaveStage	EVAlgorithm	PrefAlgorithm	AlgorithmChoice	ProlificID	Captcha5	Consent	BotCheck2	BotCheck1	BotCheck1x	BotCheck1y	Delegate	Option	StartTimeOfExperiment	TimeOKWelcomeOK	TimeOKCaptcha1OK	TimeOKOutOK	TimeContinueOverview1OK	TimeConfirmOverview2OK	TimeOKOut2OK	BotCheck1attempt	BotWarning	TimeOKBotCheck2OK	TimeOKOut3OK	TimeContinueInstructionsPart1aOK	TimeContinueInstructionsPart1bOK	TimeContinueInstructionsPart1cOK	CompQ205	CompQ10	CompQ3	auxPage	TimeNextComprehensionQsOK	TimeBackComprehensionQsOK	TimeContinueComprehensionQsOK	Part1CQsPassedOnAttempt	CompQ3a	CompQ205a	CompQ10a	TimeOKComprehensionQsReplayOK	TimeNextComprehensionQsReplayOK	TimeBackComprehensionQsReplayOK	Screen	Warning	i	OptionsetID	OrderNumber	Up	Confident	TimeOKPart1OK	TimeNextPart1OK	ConfidentPart1	SatisfiedPart1	TimeOKInstructionsPart2aOK	TimeContinueInstructionsPart2bOK	TimeContinueInstructionsPart2cOK	TimeContinueInstructionsPart2dOK	CompQ1	CompQ2	CompQ1b	CompQ0	TimeNextComprehensionQsP2OK	TimeBackComprehensionQsP2OK	TimeContinueComprehensionQsP2OK	Part2CQsPassedOnAttempt	CompQ1a	CompQ2a	CompQ1ba	CompQ0a	TimeNextComprehensionQsP2ReplayOK	TimeBackComprehensionQsP2ReplayOK	TimeContinueComprehensionQsP2ReplayOK	TimeContinueIntroPart2OK	NthDecision	TimedOutDelegationChoice	TimedOutOptionChoice	SatisfactionRating	l	aux_switch1	DelegateA[1]	DelegateA[2]	DelegateA[3]	DelegateA[4]	DelegateA[5]	DelegateA[6]	DelegateA[7]	DelegateA[8]	TimedOutOptionChoiceA[1]	TimedOutOptionChoiceA[2]	TimedOutOptionChoiceA[3]	TimedOutOptionChoiceA[4]	TimedOutOptionChoiceA[5]	TimedOutOptionChoiceA[6]	TimedOutOptionChoiceA[7]	TimedOutOptionChoiceA[8]	OptionsetIDA[1]	OptionsetIDA[2]	OptionsetIDA[3]	OptionsetIDA[4]	OptionsetIDA[5]	OptionsetIDA[6]	OptionsetIDA[7]	OptionsetIDA[8]	OptionA[1]	OptionA[2]	OptionA[3]	OptionA[4]	OptionA[5]	OptionA[6]	OptionA[7]	OptionA[8]	TimedOutOptionChocie	auxSwitch	TimeContinuePart2OK	TimeOKPart2OK	DelegateHyp10	TimeNextHypothetic10OK	ProbOfBadComputerChoices	ProbOfAbsurdComputerChoices	ComputerRiskTaking	TimeNextReasonsForHypDelegationChoiceOK	DontTrust	BetterJob	HowExactly	MoreInfo	Responsibility4Choice	Responsibility4Outcome	DislikeRelyingOn	Reactance2Analysis	PerformanceCuriosity	Tedious	Other	OtherText	TimeNextReasonsForHypDelegationChoice2OK	RiskTaking	FinMarketExperience	FinanciallyResponsible	AIXperience	TimeNextQaire1OK	Female	Age	Education	HHIncome	TimeNextQaire2OK	Reliable	AIUsageInStudy	TimeNextQaire3OK	AIWasUsed4	TimeNextQaire3aOK	Manx	TimeNextQaire4FALSEOK	RandomPeriod	RelevantPayoff	Feedback	TimeProceedTHANKYOUOK	TotalSecondsInExperiment
260206_1528	119	subjects	1	1	59	0	1	0	0	1	0	1	0	0	"5c4e38f4d3a5e300018363ba"	5	1	2	-1	50.30659501631182	-0.016030580942867356	-1	-1	0	99999	99999	0	99999	99999	0	1	0	99999	0	99999	99999	99999	205	10	3	1	99999	0	99999	1	-99	-99	-99	0	0	0	0	-99	9	0	2	1	8	99999	99999	-99	8	99999	99999	99999	99999	1	2	1	0	99999	0	99999	1	-99	-99	-99	-99	0	0	0	99999	9	1	0	-99	18	-99	0	0	0	1	0	0	1	0	0	0	0	0	0	0	0	0	7	2	3	4	8	5	6	1	5	3	8	8	2	8	5	6	1	-99	99999	99999	0	99999	4	2	8	99999	1	1	1	1	1	0	0	0	1	0	0	""	99999	8	0	10	8	99999	0	49	2	25	99999	7	0	99999	""	0	""	0	6	235	""	99999	0
SessionID	TreatmentNumber	Table	Period	Subject	ClientNumber	LastClientNumber	Group	Profit	TotalProfit	Participate	LeaveStage	EVAlgorithm	PrefAlgorithm	AlgorithmChoice	ProlificID	Captcha5	Consent	BotCheck2	BotCheck1	BotCheck1x	BotCheck1y	Delegate	Option	StartTimeOfExperiment	TimeOKWelcomeOK	TimeOKCaptcha1OK	TimeOKOutOK	TimeContinueOverview1OK	TimeConfirmOverview2OK	TimeOKOut2OK	BotCheck1attempt	BotWarning	TimeOKBotCheck2OK	TimeOKOut3OK	TimeContinueInstructionsPart1aOK	TimeContinueInstructionsPart1bOK	TimeContinueInstructionsPart1cOK	CompQ205	CompQ10	CompQ3	auxPage	TimeNextComprehensionQsOK	TimeBackComprehensionQsOK	TimeContinueComprehensionQsOK	Part1CQsPassedOnAttempt	CompQ3a	CompQ205a	CompQ10a	TimeOKComprehensionQsReplayOK	TimeNextComprehensionQsReplayOK	TimeBackComprehensionQsReplayOK	Screen	Warning	i	OptionsetID	OrderNumber	Up	Confident	TimeOKPart1OK	TimeNextPart1OK	ConfidentPart1	SatisfiedPart1	TimeOKInstructionsPart2aOK	TimeContinueInstructionsPart2bOK	TimeContinueInstructionsPart2cOK	TimeContinueInstructionsPart2dOK	CompQ1	CompQ2	CompQ1b	CompQ0	TimeNextComprehensionQsP2OK	TimeBackComprehensionQsP2OK	TimeContinueComprehensionQsP2OK	Part2CQsPassedOnAttempt	CompQ1a	CompQ2a	CompQ1ba	CompQ0a	TimeNextComprehensionQsP2ReplayOK	TimeBackComprehensionQsP2ReplayOK	TimeContinueComprehensionQsP2ReplayOK	TimeContinueIntroPart2OK	NthDecision	TimedOutDelegationChoice	TimedOutOptionChoice	SatisfactionRating	l	aux_switch1	DelegateA[1]	DelegateA[2]	DelegateA[3]	DelegateA[4]	DelegateA[5]	DelegateA[6]	DelegateA[7]	DelegateA[8]	TimedOutOptionChoiceA[1]	TimedOutOptionChoiceA[2]	TimedOutOptionChoiceA[3]	TimedOutOptionChoiceA[4]	TimedOutOptionChoiceA[5]	TimedOutOptionChoiceA[6]	TimedOutOptionChoiceA[7]	TimedOutOptionChoiceA[8]	OptionsetIDA[1]	OptionsetIDA[2]	OptionsetIDA[3]	OptionsetIDA[4]	OptionsetIDA[5]	OptionsetIDA[6]	OptionsetIDA[7]	OptionsetIDA[8]	OptionA[1]	OptionA[2]	OptionA[3]	OptionA[4]	OptionA[5]	OptionA[6]	OptionA[7]	OptionA[8]	TimedOutOptionChocie	auxSwitch	TimeContinuePart2OK	TimeOKPart2OK	DelegateHyp10	TimeNextHypothetic10OK	ProbOfBadComputerChoices	ProbOfAbsurdComputerChoices	ComputerRiskTaking	TimeNextReasonsForHypDelegationChoiceOK	DontTrust	BetterJob	HowExactly	MoreInfo	Responsibility4Choice	Responsibility4Outcome	DislikeRelyingOn	Reactance2Analysis	PerformanceCuriosity	Tedious	Other	OtherText	TimeNextReasonsForHypDelegationChoice2OK	RiskTaking	FinMarketExperience	FinanciallyResponsible	AIXperience	TimeNextQaire1OK	Female	Age	Education	HHIncome	TimeNextQaire2OK	Reliable	AIUsageInStudy	TimeNextQaire3OK	AIWasUsed4	TimeNextQaire3aOK	Manx	TimeNextQaire4FALSEOK	RandomPeriod	RelevantPayoff	Feedback	TimeProceedTHANKYOUOK	TotalSecondsInExperiment
260206_1528	11	subjects	1	1	5	0	1	0	0	1	0	0	1	0	"5ebd31a3dc638f1875840598"	5	1	2	-1	48.98982926253434	-0.010207908740942018	-1	-1	0	99999	99999	0	99999	99999	0	1	0	99999	0	99999	99999	99999	205	10	3	2	99999	0	99999	1	-99	-99	-99	0	0	0	0	-99	9	0	2	1	7	99999	99999	-99	10	99999	99999	99999	99999	1	0	1	0	99999	0	99999	0	-99	-99	1	0	99999	0	99999	99999	9	1	0	-99	18	-99	0	1	0	0	0	0	0	0	1	0	0	0	0	0	0	0	8	4	6	1	5	2	7	3	2	8	6	4	7	4	1	5	1	-99	99999	99999	0	99999	1	2	10	99999	0	0	0	1	1	0	0	0	1	0	0	""	99999	6	0	5	10	99999	1	27	3	5	99999	7	0	99999	""	0	""	0	5	0	"no"	99999	0
SessionID	TreatmentNumber	Table	Period	Subject	ClientNumber	LastClientNumber	Group	Profit	TotalProfit	Participate	LeaveStage
260206_1528	120	subjects	1	1	60	0	1	0	0	1	0
SessionID	TreatmentNumber	Table	Period	Subject	ClientNumber	LastClientNumber	Group	Profit	TotalProfit	Participate	LeaveStage	EVAlgorithm	PrefAlgorithm	AlgorithmChoice	ProlificID	Captcha5	Consent	BotCheck2	BotCheck1	BotCheck1x	BotCheck1y	Delegate	Option	StartTimeOfExperiment	TimeOKWelcomeOK	TimeOKCaptcha1OK	TimeOKOutOK	TimeContinueOverview1OK	TimeConfirmOverview2OK	TimeOKOut2OK	BotCheck1attempt	BotWarning	TimeOKBotCheck2OK	TimeOKOut3OK	TimeContinueInstructionsPart1aOK	TimeContinueInstructionsPart1bOK	TimeContinueInstructionsPart1cOK	CompQ205	CompQ10	CompQ3	auxPage	TimeNextComprehensionQsOK	TimeBackComprehensionQsOK	TimeContinueComprehensionQsOK	Part1CQsPassedOnAttempt	CompQ3a	CompQ205a	CompQ10a	TimeOKComprehensionQsReplayOK	TimeNextComprehensionQsReplayOK	TimeBackComprehensionQsReplayOK	Screen	Warning	i	OptionsetID	OrderNumber	Up	Confident	TimeOKPart1OK	TimeNextPart1OK	ConfidentPart1	SatisfiedPart1	TimeOKInstructionsPart2aOK	TimeContinueInstructionsPart2bOK	TimeContinueInstructionsPart2cOK	TimeContinueInstructionsPart2dOK	CompQ1	CompQ2	CompQ1b	CompQ0	TimeNextComprehensionQsP2OK	TimeBackComprehensionQsP2OK	TimeContinueComprehensionQsP2OK	Part2CQsPassedOnAttempt	CompQ1a	CompQ2a	CompQ1ba	CompQ0a	TimeNextComprehensionQsP2ReplayOK	TimeBackComprehensionQsP2ReplayOK	TimeContinueComprehensionQsP2ReplayOK	TimeContinueIntroPart2OK	NthDecision	TimedOutDelegationChoice	TimedOutOptionChoice	SatisfactionRating	l	aux_switch1	DelegateA[1]	DelegateA[2]	DelegateA[3]	DelegateA[4]	DelegateA[5]	DelegateA[6]	DelegateA[7]	DelegateA[8]	TimedOutOptionChoiceA[1]	TimedOutOptionChoiceA[2]	TimedOutOptionChoiceA[3]	TimedOutOptionChoiceA[4]	TimedOutOptionChoiceA[5]	TimedOutOptionChoiceA[6]	TimedOutOptionChoiceA[7]	TimedOutOptionChoiceA[8]	OptionsetIDA[1]	OptionsetIDA[2]	OptionsetIDA[3]	OptionsetIDA[4]	OptionsetIDA[5]	OptionsetIDA[6]	OptionsetIDA[7]	OptionsetIDA[8]	OptionA[1]	OptionA[2]	OptionA[3]	OptionA[4]	OptionA[5]	OptionA[6]	OptionA[7]	OptionA[8]	TimedOutOptionChocie	auxSwitch	TimeContinuePart2OK	TimeOKPart2OK	DelegateHyp10	TimeNextHypothetic10OK	ProbOfBadComputerChoices	ProbOfAbsurdComputerChoices	ComputerRiskTaking	TimeNextReasonsForHypDelegationChoiceOK	DontTrust	BetterJob	HowExactly	MoreInfo	Responsibility4Choice	Responsibility4Outcome	DislikeRelyingOn	Reactance2Analysis	PerformanceCuriosity	Tedious	Other	OtherText	TimeNextReasonsForHypDelegationChoice2OK	RiskTaking	FinMarketExperience	FinanciallyResponsible	AIXperience	TimeNextQaire1OK	Female	Age	Education	HHIncome	TimeNextQaire2OK	Reliable	AIUsageInStudy	TimeNextQaire3OK	AIWasUsed4	TimeNextQaire3aOK	Manx	TimeNextQaire4FALSEOK	RandomPeriod	RelevantPayoff	Feedback	TimeProceedTHANKYOUOK	TotalSecondsInExperiment
260206_1528	121	subjects	1	1	60	0	1	0	0	1	0	1	0	0	"66eada82e2a59d472d2dd086"	5	1	2	-1	50.25638204225353	0.01430600649350644	-1	-1	0	99999	99999	0	99999	99999	0	1	0	99999	0	99999	99999	99999	205	10	3	2	99999	0	99999	1	-99	-99	-99	0	0	0	0	-99	9	0	1	1	6	99999	99999	-99	6	99999	99999	99999	99999	1	2	8	0	99999	0	99999	2	1	2	1	0	99999	0	99999	99999	9	1	1	-99	18	-99	1	1	0	1	1	0	1	0	0	0	1	0	0	1	0	1	5	7	4	8	6	1	2	3	8	4	6	4	5	3	5	2	1	0	99999	99999	0	99999	5	5	1	99999	1	1	0	0	1	0	0	0	1	0	0	""	99999	6	5	4	4	99999	1	21	4	75	99999	7	0	99999	""	0	""	0	2	320	""	99999	0
SessionID	TreatmentNumber	Table	Period	Subject	ClientNumber	LastClientNumber	Group	Profit	TotalProfit	Participate	LeaveStage
260206_1528	122	subjects	1	1	61	0	1	0	0	1	0
SessionID	TreatmentNumber	Table	Period	Subject	ClientNumber	LastClientNumber	Group	Profit	TotalProfit	Participate	LeaveStage	EVAlgorithm	PrefAlgorithm	AlgorithmChoice	ProlificID	Captcha5	Consent	BotCheck2	BotCheck1	BotCheck1x	BotCheck1y	Delegate	Option	StartTimeOfExperiment	TimeOKWelcomeOK	TimeOKCaptcha1OK	TimeOKOutOK	TimeContinueOverview1OK	TimeConfirmOverview2OK	TimeOKOut2OK	BotCheck1attempt	BotWarning	TimeOKBotCheck2OK	TimeOKOut3OK	TimeContinueInstructionsPart1aOK	TimeContinueInstructionsPart1bOK	TimeContinueInstructionsPart1cOK	CompQ205	CompQ10	CompQ3	auxPage	TimeNextComprehensionQsOK	TimeBackComprehensionQsOK	TimeContinueComprehensionQsOK	Part1CQsPassedOnAttempt	CompQ3a	CompQ205a	CompQ10a	TimeOKComprehensionQsReplayOK	TimeNextComprehensionQsReplayOK	TimeBackComprehensionQsReplayOK	Screen	Warning	i	OptionsetID	OrderNumber	Up	Confident	TimeOKPart1OK	TimeNextPart1OK	ConfidentPart1	SatisfiedPart1	TimeOKInstructionsPart2aOK	TimeContinueInstructionsPart2bOK	TimeContinueInstructionsPart2cOK	TimeContinueInstructionsPart2dOK	CompQ1	CompQ2	CompQ1b	CompQ0	TimeNextComprehensionQsP2OK	TimeBackComprehensionQsP2OK	TimeContinueComprehensionQsP2OK	Part2CQsPassedOnAttempt	CompQ1a	CompQ2a	CompQ1ba	CompQ0a	TimeNextComprehensionQsP2ReplayOK	TimeBackComprehensionQsP2ReplayOK	TimeContinueComprehensionQsP2ReplayOK	TimeContinueIntroPart2OK	NthDecision	TimedOutDelegationChoice	TimedOutOptionChoice	SatisfactionRating	l	aux_switch1	DelegateA[1]	DelegateA[2]	DelegateA[3]	DelegateA[4]	DelegateA[5]	DelegateA[6]	DelegateA[7]	DelegateA[8]	TimedOutOptionChoiceA[1]	TimedOutOptionChoiceA[2]	TimedOutOptionChoiceA[3]	TimedOutOptionChoiceA[4]	TimedOutOptionChoiceA[5]	TimedOutOptionChoiceA[6]	TimedOutOptionChoiceA[7]	TimedOutOptionChoiceA[8]	OptionsetIDA[1]	OptionsetIDA[2]	OptionsetIDA[3]	OptionsetIDA[4]	OptionsetIDA[5]	OptionsetIDA[6]	OptionsetIDA[7]	OptionsetIDA[8]	OptionA[1]	OptionA[2]	OptionA[3]	OptionA[4]	OptionA[5]	OptionA[6]	OptionA[7]	OptionA[8]	TimedOutOptionChocie	auxSwitch	TimeContinuePart2OK	TimeOKPart2OK	DelegateHyp10	TimeNextHypothetic10OK	ProbOfBadComputerChoices	ProbOfAbsurdComputerChoices	ComputerRiskTaking	TimeNextReasonsForHypDelegationChoiceOK	DontTrust	BetterJob	HowExactly	MoreInfo	Responsibility4Choice	Responsibility4Outcome	DislikeRelyingOn	Reactance2Analysis	PerformanceCuriosity	Tedious	Other	OtherText	TimeNextReasonsForHypDelegationChoice2OK	RiskTaking	FinMarketExperience	FinanciallyResponsible	AIXperience	TimeNextQaire1OK	Female	Age	Education	HHIncome	TimeNextQaire2OK	Reliable	AIUsageInStudy	TimeNextQaire3OK	AIWasUsed4	TimeNextQaire3aOK	Manx	TimeNextQaire4FALSEOK	RandomPeriod	RelevantPayoff	Feedback	TimeProceedTHANKYOUOK	TotalSecondsInExperiment
260206_1528	123	subjects	1	1	61	0	1	0	0	1	0	0	1	0	"5967e9a831394d0001abdb3f"	5	1	2	-1	52.85134793460511	0.010768989894701098	-1	-1	0	99999	99999	0	99999	99999	0	1	0	99999	0	99999	99999	99999	205	10	3	2	99999	0	99999	1	-99	-99	-99	0	0	0	0	-99	9	0	2	1	8	99999	99999	-99	8	99999	99999	99999	99999	1	1	1	0	99999	0	99999	2	1	2	1	0	99999	0	99999	99999	9	1	0	-99	18	-99	1	1	1	1	1	1	1	1	0	0	0	0	0	0	0	0	5	4	8	1	3	7	2	6	8	4	4	6	7	4	7	5	1	0	99999	99999	0	99999	5	2	10	99999	1	1	0	1	1	1	0	1	1	0	0	""	99999	1	8	5	3	99999	1	61	2	35	99999	7	0	99999	""	0	""	0	8	0	"Yes. The bonus on offer is misleading"	99999	0
SessionID	TreatmentNumber	Table	Period	Subject	ClientNumber	LastClientNumber	Group	Profit	TotalProfit	Participate	LeaveStage
260206_1528	124	subjects	1	1	62	0	1	0	0	1	0
SessionID	TreatmentNumber	Table	Period	Subject	ClientNumber	LastClientNumber	Group	Profit	TotalProfit	Participate	LeaveStage	EVAlgorithm	PrefAlgorithm	AlgorithmChoice	ProlificID	Captcha5	Consent	BotCheck2	BotCheck1	BotCheck1x	BotCheck1y	Delegate	Option	StartTimeOfExperiment	TimeOKWelcomeOK	TimeOKCaptcha1OK	TimeOKOutOK	TimeContinueOverview1OK	TimeConfirmOverview2OK	TimeOKOut2OK	BotCheck1attempt	BotWarning	TimeOKBotCheck2OK	TimeOKOut3OK	TimeContinueInstructionsPart1aOK	TimeContinueInstructionsPart1bOK	TimeContinueInstructionsPart1cOK	CompQ205	CompQ10	CompQ3	auxPage	TimeNextComprehensionQsOK	TimeBackComprehensionQsOK	TimeContinueComprehensionQsOK	Part1CQsPassedOnAttempt	CompQ3a	CompQ205a	CompQ10a	TimeOKComprehensionQsReplayOK	TimeNextComprehensionQsReplayOK	TimeBackComprehensionQsReplayOK	Screen	Warning	i	OptionsetID	OrderNumber	Up	Confident	TimeOKPart1OK	TimeNextPart1OK	ConfidentPart1	SatisfiedPart1	TimeOKInstructionsPart2aOK	TimeContinueInstructionsPart2bOK	TimeContinueInstructionsPart2cOK	TimeContinueInstructionsPart2dOK	CompQ1	CompQ2	CompQ1b	CompQ0	TimeNextComprehensionQsP2OK	TimeBackComprehensionQsP2OK	TimeContinueComprehensionQsP2OK	Part2CQsPassedOnAttempt	CompQ1a	CompQ2a	CompQ1ba	CompQ0a	TimeNextComprehensionQsP2ReplayOK	TimeBackComprehensionQsP2ReplayOK	TimeContinueComprehensionQsP2ReplayOK	TimeContinueIntroPart2OK	NthDecision	TimedOutDelegationChoice	TimedOutOptionChoice	SatisfactionRating	l	aux_switch1	DelegateA[1]	DelegateA[2]	DelegateA[3]	DelegateA[4]	DelegateA[5]	DelegateA[6]	DelegateA[7]	DelegateA[8]	TimedOutOptionChoiceA[1]	TimedOutOptionChoiceA[2]	TimedOutOptionChoiceA[3]	TimedOutOptionChoiceA[4]	TimedOutOptionChoiceA[5]	TimedOutOptionChoiceA[6]	TimedOutOptionChoiceA[7]	TimedOutOptionChoiceA[8]	OptionsetIDA[1]	OptionsetIDA[2]	OptionsetIDA[3]	OptionsetIDA[4]	OptionsetIDA[5]	OptionsetIDA[6]	OptionsetIDA[7]	OptionsetIDA[8]	OptionA[1]	OptionA[2]	OptionA[3]	OptionA[4]	OptionA[5]	OptionA[6]	OptionA[7]	OptionA[8]	TimedOutOptionChocie	auxSwitch	TimeContinuePart2OK	TimeOKPart2OK	DelegateHyp10	TimeNextHypothetic10OK	ProbOfBadComputerChoices	ProbOfAbsurdComputerChoices	ComputerRiskTaking	TimeNextReasonsForHypDelegationChoiceOK	DontTrust	BetterJob	HowExactly	MoreInfo	Responsibility4Choice	Responsibility4Outcome	DislikeRelyingOn	Reactance2Analysis	PerformanceCuriosity	Tedious	Other	OtherText	TimeNextReasonsForHypDelegationChoice2OK	RiskTaking	FinMarketExperience	FinanciallyResponsible	AIXperience	TimeNextQaire1OK	Female	Age	Education	HHIncome	TimeNextQaire2OK	Reliable	AIUsageInStudy	TimeNextQaire3OK	AIWasUsed4	TimeNextQaire3aOK	Manx	TimeNextQaire4FALSEOK	RandomPeriod	RelevantPayoff	Feedback	TimeProceedTHANKYOUOK	TotalSecondsInExperiment
260206_1528	125	subjects	1	1	62	0	1	0	0	1	0	0	1	0	"5d879c06e645c60019847113"	5	1	2	-1	51.578947368421055	0.016574585635359074	-1	-1	0	99999	99999	0	99999	99999	0	1	0	99999	0	99999	99999	99999	205	10	3	2	99999	0	99999	1	-99	-99	-99	0	0	0	0	-99	9	0	1	0	6	99999	99999	-99	8	99999	99999	99999	99999	0	1	8	0	99999	0	99999	0	0	0	8	0	99999	0	99999	99999	9	1	1	-99	18	-99	0	1	0	0	1	1	0	0	0	0	1	0	0	0	1	1	2	7	8	6	3	4	5	1	7	4	1	1	7	4	8	4	1	-99	99999	99999	0	99999	3	1	7	99999	0	0	0	0	1	0	0	0	0	0	0	""	99999	7	4	7	6	99999	1	37	5	25	99999	7	0	99999	""	0	""	0	1	0	"n/a"	99999	0
SessionID	TreatmentNumber	Table	Period	Subject	ClientNumber	LastClientNumber	Group	Profit	TotalProfit	Participate	LeaveStage
260206_1528	126	subjects	1	1	63	0	1	0	0	1	0
SessionID	TreatmentNumber	Table	Period	Subject	ClientNumber	LastClientNumber	Group	Profit	TotalProfit	Participate	LeaveStage	EVAlgorithm	PrefAlgorithm	AlgorithmChoice	ProlificID	Captcha5	Consent	BotCheck2	BotCheck1	BotCheck1x	BotCheck1y	Delegate	Option	StartTimeOfExperiment	TimeOKWelcomeOK	TimeOKCaptcha1OK	TimeOKOutOK	TimeContinueOverview1OK	TimeConfirmOverview2OK	TimeOKOut2OK	BotCheck1attempt	BotWarning	TimeOKBotCheck2OK	TimeOKOut3OK	TimeContinueInstructionsPart1aOK	TimeContinueInstructionsPart1bOK	TimeContinueInstructionsPart1cOK	CompQ205	CompQ10	CompQ3	auxPage	TimeNextComprehensionQsOK	TimeBackComprehensionQsOK	TimeContinueComprehensionQsOK	Part1CQsPassedOnAttempt	CompQ3a	CompQ205a	CompQ10a	TimeOKComprehensionQsReplayOK	TimeNextComprehensionQsReplayOK	TimeBackComprehensionQsReplayOK	Screen	Warning	i	OptionsetID	OrderNumber	Up	Confident	TimeOKPart1OK	TimeNextPart1OK	ConfidentPart1	SatisfiedPart1	TimeOKInstructionsPart2aOK	TimeContinueInstructionsPart2bOK	TimeContinueInstructionsPart2cOK	TimeContinueInstructionsPart2dOK	CompQ1	CompQ2	CompQ1b	CompQ0	TimeNextComprehensionQsP2OK	TimeBackComprehensionQsP2OK	TimeContinueComprehensionQsP2OK	Part2CQsPassedOnAttempt	CompQ1a	CompQ2a	CompQ1ba	CompQ0a	TimeNextComprehensionQsP2ReplayOK	TimeBackComprehensionQsP2ReplayOK	TimeContinueComprehensionQsP2ReplayOK	TimeContinueIntroPart2OK	NthDecision	TimedOutDelegationChoice	TimedOutOptionChoice	SatisfactionRating	l	aux_switch1	DelegateA[1]	DelegateA[2]	DelegateA[3]	DelegateA[4]	DelegateA[5]	DelegateA[6]	DelegateA[7]	DelegateA[8]	TimedOutOptionChoiceA[1]	TimedOutOptionChoiceA[2]	TimedOutOptionChoiceA[3]	TimedOutOptionChoiceA[4]	TimedOutOptionChoiceA[5]	TimedOutOptionChoiceA[6]	TimedOutOptionChoiceA[7]	TimedOutOptionChoiceA[8]	OptionsetIDA[1]	OptionsetIDA[2]	OptionsetIDA[3]	OptionsetIDA[4]	OptionsetIDA[5]	OptionsetIDA[6]	OptionsetIDA[7]	OptionsetIDA[8]	OptionA[1]	OptionA[2]	OptionA[3]	OptionA[4]	OptionA[5]	OptionA[6]	OptionA[7]	OptionA[8]	TimedOutOptionChocie	auxSwitch	TimeContinuePart2OK	TimeOKPart2OK	DelegateHyp10	TimeNextHypothetic10OK	ProbOfBadComputerChoices	ProbOfAbsurdComputerChoices	ComputerRiskTaking	TimeNextReasonsForHypDelegationChoiceOK	DontTrust	BetterJob	HowExactly	MoreInfo	Responsibility4Choice	Responsibility4Outcome	DislikeRelyingOn	Reactance2Analysis	PerformanceCuriosity	Tedious	Other	OtherText	TimeNextReasonsForHypDelegationChoice2OK	RiskTaking	FinMarketExperience	FinanciallyResponsible	AIXperience	TimeNextQaire1OK	Female	Age	Education	HHIncome	TimeNextQaire2OK	Reliable	AIUsageInStudy	TimeNextQaire3OK	AIWasUsed4	TimeNextQaire3aOK	Manx	TimeNextQaire4FALSEOK	RandomPeriod	RelevantPayoff	Feedback	TimeProceedTHANKYOUOK	TotalSecondsInExperiment
260206_1528	127	subjects	1	1	63	0	1	0	0	1	0	1	0	0	"5f778d553167a12eae0e1c00"	5	1	2	-1	47.200593575419	-0.016377314814814803	-1	-1	0	99999	99999	0	99999	99999	0	1	0	99999	0	99999	99999	99999	205	10	2	2	99999	0	99999	2	3	205	10	99999	99999	0	0	-99	9	0	2	0	8	99999	99999	-99	6	99999	99999	99999	99999	1	1	1	0	99999	0	99999	2	1	2	1	0	99999	0	99999	99999	9	1	0	-99	18	-99	0	1	1	0	0	0	0	0	0	0	0	0	0	0	0	0	8	5	4	2	6	3	1	7	1	8	8	3	6	6	4	1	1	-99	99999	99999	0	99999	3	0	3	99999	1	0	0	0	0	0	0	0	0	0	0	""	99999	3	5	4	1	99999	1	33	4	25	99999	7	0	99999	""	0	""	0	4	255	"no"	99999	0
SessionID	TreatmentNumber	Table	Period	Subject	ClientNumber	LastClientNumber	Group	Profit	TotalProfit	Participate	LeaveStage
260206_1528	128	subjects	1	1	64	0	1	0	0	1	0
SessionID	TreatmentNumber	Table	Period	Subject	ClientNumber	LastClientNumber	Group	Profit	TotalProfit	Participate	LeaveStage	EVAlgorithm	PrefAlgorithm	AlgorithmChoice	ProlificID	Captcha5	Consent	BotCheck2	BotCheck1	BotCheck1x	BotCheck1y	Delegate	Option	StartTimeOfExperiment	TimeOKWelcomeOK	TimeOKCaptcha1OK	TimeOKOutOK	TimeContinueOverview1OK	TimeConfirmOverview2OK	TimeOKOut2OK	BotCheck1attempt	BotWarning	TimeOKBotCheck2OK	TimeOKOut3OK	TimeContinueInstructionsPart1aOK	TimeContinueInstructionsPart1bOK	TimeContinueInstructionsPart1cOK	CompQ205	CompQ10	CompQ3	auxPage	TimeNextComprehensionQsOK	TimeBackComprehensionQsOK	TimeContinueComprehensionQsOK	Part1CQsPassedOnAttempt	CompQ3a	CompQ205a	CompQ10a	TimeOKComprehensionQsReplayOK	TimeNextComprehensionQsReplayOK	TimeBackComprehensionQsReplayOK	Screen	Warning	i	OptionsetID	OrderNumber	Up	Confident	TimeOKPart1OK	TimeNextPart1OK	ConfidentPart1	SatisfiedPart1	TimeOKInstructionsPart2aOK	TimeContinueInstructionsPart2bOK	TimeContinueInstructionsPart2cOK	TimeContinueInstructionsPart2dOK	CompQ1	CompQ2	CompQ1b	CompQ0	TimeNextComprehensionQsP2OK	TimeBackComprehensionQsP2OK	TimeContinueComprehensionQsP2OK	Part2CQsPassedOnAttempt	CompQ1a	CompQ2a	CompQ1ba	CompQ0a	TimeNextComprehensionQsP2ReplayOK	TimeBackComprehensionQsP2ReplayOK	TimeContinueComprehensionQsP2ReplayOK	TimeContinueIntroPart2OK	NthDecision	TimedOutDelegationChoice	TimedOutOptionChoice	SatisfactionRating	l	aux_switch1	DelegateA[1]	DelegateA[2]	DelegateA[3]	DelegateA[4]	DelegateA[5]	DelegateA[6]	DelegateA[7]	DelegateA[8]	TimedOutOptionChoiceA[1]	TimedOutOptionChoiceA[2]	TimedOutOptionChoiceA[3]	TimedOutOptionChoiceA[4]	TimedOutOptionChoiceA[5]	TimedOutOptionChoiceA[6]	TimedOutOptionChoiceA[7]	TimedOutOptionChoiceA[8]	OptionsetIDA[1]	OptionsetIDA[2]	OptionsetIDA[3]	OptionsetIDA[4]	OptionsetIDA[5]	OptionsetIDA[6]	OptionsetIDA[7]	OptionsetIDA[8]	OptionA[1]	OptionA[2]	OptionA[3]	OptionA[4]	OptionA[5]	OptionA[6]	OptionA[7]	OptionA[8]	TimedOutOptionChocie	auxSwitch	TimeContinuePart2OK	TimeOKPart2OK	DelegateHyp10	TimeNextHypothetic10OK	ProbOfBadComputerChoices	ProbOfAbsurdComputerChoices	ComputerRiskTaking	TimeNextReasonsForHypDelegationChoiceOK	DontTrust	BetterJob	HowExactly	MoreInfo	Responsibility4Choice	Responsibility4Outcome	DislikeRelyingOn	Reactance2Analysis	PerformanceCuriosity	Tedious	Other	OtherText	TimeNextReasonsForHypDelegationChoice2OK	RiskTaking	FinMarketExperience	FinanciallyResponsible	AIXperience	TimeNextQaire1OK	Female	Age	Education	HHIncome	TimeNextQaire2OK	Reliable	AIUsageInStudy	TimeNextQaire3OK	AIWasUsed4	TimeNextQaire3aOK	Manx	TimeNextQaire4FALSEOK	RandomPeriod	RelevantPayoff	Feedback	TimeProceedTHANKYOUOK	TotalSecondsInExperiment
260206_1528	129	subjects	1	1	64	0	1	0	0	1	0	1	0	0	"582f8bbd4cadc80001b0fbd3"	5	1	2	-1	51.67801875858517	-0.016030580942867356	-1	-1	0	99999	99999	0	99999	99999	0	1	0	99999	0	99999	99999	99999	205	10	3	1	99999	0	99999	1	-99	-99	-99	0	0	0	0	-99	9	0	2	0	8	99999	99999	-99	8	99999	99999	99999	99999	1	2	1	0	99999	0	99999	1	-99	-99	-99	-99	0	0	0	99999	9	1	0	-99	18	-99	1	1	1	0	0	0	0	0	0	0	0	0	0	0	0	0	5	7	4	3	1	2	8	6	8	4	8	3	6	7	2	2	1	-99	99999	99999	0	99999	6	2	9	99999	0	0	0	0	1	0	0	0	0	0	0	""	99999	7	2	8	7	99999	0	45	2	55	99999	7	0	99999	""	0	""	0	4	290	""	99999	0
SessionID	TreatmentNumber	Table	Period	Subject	ClientNumber	LastClientNumber	Group	Profit	TotalProfit	Participate	LeaveStage
260206_1528	12	subjects	1	1	6	0	1	0	0	1	0
SessionID	TreatmentNumber	Table	Period	Subject	ClientNumber	LastClientNumber	Group	Profit	TotalProfit	Participate	LeaveStage
260206_1528	130	subjects	1	1	65	0	1	0	0	1	0
SessionID	TreatmentNumber	Table	Period	Subject	ClientNumber	LastClientNumber	Group	Profit	TotalProfit	Participate	LeaveStage	EVAlgorithm	PrefAlgorithm	AlgorithmChoice	ProlificID	Captcha5	Consent	BotCheck2	BotCheck1	BotCheck1x	BotCheck1y	Delegate	Option	StartTimeOfExperiment	TimeOKWelcomeOK	TimeOKCaptcha1OK	TimeOKOutOK	TimeContinueOverview1OK	TimeConfirmOverview2OK	TimeOKOut2OK	BotCheck1attempt	BotWarning	TimeOKBotCheck2OK	TimeOKOut3OK	TimeContinueInstructionsPart1aOK	TimeContinueInstructionsPart1bOK	TimeContinueInstructionsPart1cOK	CompQ205	CompQ10	CompQ3	auxPage	TimeNextComprehensionQsOK	TimeBackComprehensionQsOK	TimeContinueComprehensionQsOK	Part1CQsPassedOnAttempt	CompQ3a	CompQ205a	CompQ10a	TimeOKComprehensionQsReplayOK	TimeNextComprehensionQsReplayOK	TimeBackComprehensionQsReplayOK	Screen	Warning	i	OptionsetID	OrderNumber	Up	Confident	TimeOKPart1OK	TimeNextPart1OK	ConfidentPart1	SatisfiedPart1	TimeOKInstructionsPart2aOK	TimeContinueInstructionsPart2bOK	TimeContinueInstructionsPart2cOK	TimeContinueInstructionsPart2dOK	CompQ1	CompQ2	CompQ1b	CompQ0	TimeNextComprehensionQsP2OK	TimeBackComprehensionQsP2OK	TimeContinueComprehensionQsP2OK	Part2CQsPassedOnAttempt	CompQ1a	CompQ2a	CompQ1ba	CompQ0a	TimeNextComprehensionQsP2ReplayOK	TimeBackComprehensionQsP2ReplayOK	TimeContinueComprehensionQsP2ReplayOK	TimeContinueIntroPart2OK	NthDecision	TimedOutDelegationChoice	TimedOutOptionChoice	SatisfactionRating	l	aux_switch1	DelegateA[1]	DelegateA[2]	DelegateA[3]	DelegateA[4]	DelegateA[5]	DelegateA[6]	DelegateA[7]	DelegateA[8]	TimedOutOptionChoiceA[1]	TimedOutOptionChoiceA[2]	TimedOutOptionChoiceA[3]	TimedOutOptionChoiceA[4]	TimedOutOptionChoiceA[5]	TimedOutOptionChoiceA[6]	TimedOutOptionChoiceA[7]	TimedOutOptionChoiceA[8]	OptionsetIDA[1]	OptionsetIDA[2]	OptionsetIDA[3]	OptionsetIDA[4]	OptionsetIDA[5]	OptionsetIDA[6]	OptionsetIDA[7]	OptionsetIDA[8]	OptionA[1]	OptionA[2]	OptionA[3]	OptionA[4]	OptionA[5]	OptionA[6]	OptionA[7]	OptionA[8]	TimedOutOptionChocie	auxSwitch	TimeContinuePart2OK	TimeOKPart2OK	DelegateHyp10	TimeNextHypothetic10OK	ProbOfBadComputerChoices	ProbOfAbsurdComputerChoices	ComputerRiskTaking	TimeNextReasonsForHypDelegationChoiceOK	DontTrust	BetterJob	HowExactly	MoreInfo	Responsibility4Choice	Responsibility4Outcome	DislikeRelyingOn	Reactance2Analysis	PerformanceCuriosity	Tedious	Other	OtherText	TimeNextReasonsForHypDelegationChoice2OK	RiskTaking	FinMarketExperience	FinanciallyResponsible	AIXperience	TimeNextQaire1OK	Female	Age	Education	HHIncome	TimeNextQaire2OK	Reliable	AIUsageInStudy	TimeNextQaire3OK	AIWasUsed4	TimeNextQaire3aOK	Manx	TimeNextQaire4FALSEOK	RandomPeriod	RelevantPayoff	Feedback	TimeProceedTHANKYOUOK	TotalSecondsInExperiment
260206_1528	131	subjects	1	1	65	0	1	0	0	1	0	1	0	0	"63f11d008327663bc314b53b"	5	1	2	-1	52.20549128605769	0.02753636456918029	-1	-1	0	99999	99999	0	99999	99999	0	1	0	99999	0	99999	99999	99999	205	10	3	1	99999	0	99999	1	-99	-99	-99	0	0	0	0	-99	9	0	1	1	9	99999	99999	-99	7	99999	99999	99999	99999	1	2	1	0	99999	99999	99999	1	-99	-99	-99	-99	0	0	0	99999	9	1	0	-99	18	-99	1	0	1	1	0	1	0	1	0	0	0	0	0	0	0	0	1	3	6	7	2	4	5	8	3	3	5	4	7	8	5	4	1	-99	99999	99999	1	99999	0	0	9	99999	1	1	0	0	0	1	1	0	0	1	0	""	99999	7	7	6	8	99999	0	60	4	65	99999	6	0	99999	""	0	""	0	8	360	"Interesting study - thanks for the opportunity to take part."	99999	0
SessionID	TreatmentNumber	Table	Period	Subject	ClientNumber	LastClientNumber	Group	Profit	TotalProfit	Participate	LeaveStage
260206_1528	132	subjects	1	1	66	0	1	0	0	1	0
SessionID	TreatmentNumber	Table	Period	Subject	ClientNumber	LastClientNumber	Group	Profit	TotalProfit	Participate	LeaveStage	EVAlgorithm	PrefAlgorithm	AlgorithmChoice	ProlificID	Captcha5	Consent	BotCheck2	BotCheck1	BotCheck1x	BotCheck1y	Delegate	Option	StartTimeOfExperiment	TimeOKWelcomeOK	TimeOKCaptcha1OK	TimeOKOutOK	TimeContinueOverview1OK	TimeConfirmOverview2OK	TimeOKOut2OK	BotCheck1attempt	BotWarning	TimeOKBotCheck2OK	TimeOKOut3OK	TimeContinueInstructionsPart1aOK	TimeContinueInstructionsPart1bOK	TimeContinueInstructionsPart1cOK	CompQ205	CompQ10	CompQ3	auxPage	TimeNextComprehensionQsOK	TimeBackComprehensionQsOK	TimeContinueComprehensionQsOK	Part1CQsPassedOnAttempt	CompQ3a	CompQ205a	CompQ10a	TimeOKComprehensionQsReplayOK	TimeNextComprehensionQsReplayOK	TimeBackComprehensionQsReplayOK	Screen	Warning	i	OptionsetID	OrderNumber	Up	Confident	TimeOKPart1OK	TimeNextPart1OK	ConfidentPart1	SatisfiedPart1	TimeOKInstructionsPart2aOK	TimeContinueInstructionsPart2bOK	TimeContinueInstructionsPart2cOK	TimeContinueInstructionsPart2dOK	CompQ1	CompQ2	CompQ1b	CompQ0	TimeNextComprehensionQsP2OK	TimeBackComprehensionQsP2OK	TimeContinueComprehensionQsP2OK	Part2CQsPassedOnAttempt	CompQ1a	CompQ2a	CompQ1ba	CompQ0a	TimeNextComprehensionQsP2ReplayOK	TimeBackComprehensionQsP2ReplayOK	TimeContinueComprehensionQsP2ReplayOK	TimeContinueIntroPart2OK	NthDecision	TimedOutDelegationChoice	TimedOutOptionChoice	SatisfactionRating	l	aux_switch1	DelegateA[1]	DelegateA[2]	DelegateA[3]	DelegateA[4]	DelegateA[5]	DelegateA[6]	DelegateA[7]	DelegateA[8]	TimedOutOptionChoiceA[1]	TimedOutOptionChoiceA[2]	TimedOutOptionChoiceA[3]	TimedOutOptionChoiceA[4]	TimedOutOptionChoiceA[5]	TimedOutOptionChoiceA[6]	TimedOutOptionChoiceA[7]	TimedOutOptionChoiceA[8]	OptionsetIDA[1]	OptionsetIDA[2]	OptionsetIDA[3]	OptionsetIDA[4]	OptionsetIDA[5]	OptionsetIDA[6]	OptionsetIDA[7]	OptionsetIDA[8]	OptionA[1]	OptionA[2]	OptionA[3]	OptionA[4]	OptionA[5]	OptionA[6]	OptionA[7]	OptionA[8]	TimedOutOptionChocie	auxSwitch	TimeContinuePart2OK	TimeOKPart2OK	DelegateHyp10	TimeNextHypothetic10OK	ProbOfBadComputerChoices	ProbOfAbsurdComputerChoices	ComputerRiskTaking	TimeNextReasonsForHypDelegationChoiceOK	DontTrust	BetterJob	HowExactly	MoreInfo	Responsibility4Choice	Responsibility4Outcome	DislikeRelyingOn	Reactance2Analysis	PerformanceCuriosity	Tedious	Other	OtherText	TimeNextReasonsForHypDelegationChoice2OK	RiskTaking	FinMarketExperience	FinanciallyResponsible	AIXperience	TimeNextQaire1OK	Female	Age	Education	HHIncome	TimeNextQaire2OK	Reliable	AIUsageInStudy	TimeNextQaire3OK	AIWasUsed4	TimeNextQaire3aOK	Manx	TimeNextQaire4FALSEOK	RandomPeriod	RelevantPayoff	Feedback	TimeProceedTHANKYOUOK	TotalSecondsInExperiment
260206_1528	133	subjects	1	1	66	0	1	0	0	1	0	0	1	0	"667c2175b570aa694ce2f63c"	5	1	2	-1	50.30659501631182	0.02061078020634544	-1	-1	0	99999	99999	0	99999	99999	0	1	0	99999	0	99999	99999	99999	205	10	3	2	99999	0	99999	1	-99	-99	-99	0	0	0	0	-99	9	0	2	1	9	99999	99999	-99	8	99999	99999	99999	99999	1	1	1	0	99999	0	99999	0	1	0	1	0	99999	0	99999	99999	9	1	0	-99	18	-99	1	0	0	1	1	0	0	1	0	0	0	0	0	0	0	0	4	7	1	8	6	5	3	2	4	6	6	4	5	2	1	5	1	-99	99999	99999	0	99999	4	1	8	99999	0	1	0	0	0	0	0	0	0	0	0	""	99999	10	9	10	10	99999	0	44	2	65	99999	7	0	99999	""	0	""	0	3	0	""	99999	0
SessionID	TreatmentNumber	Table	Period	Subject	ClientNumber	LastClientNumber	Group	Profit	TotalProfit	Participate	LeaveStage
260206_1528	134	subjects	1	1	67	0	1	0	0	1	0
SessionID	TreatmentNumber	Table	Period	Subject	ClientNumber	LastClientNumber	Group	Profit	TotalProfit	Participate	LeaveStage
260206_1528	136	subjects	1	1	68	0	1	0	0	1	0
SessionID	TreatmentNumber	Table	Period	Subject	ClientNumber	LastClientNumber	Group	Profit	TotalProfit	Participate	LeaveStage	EVAlgorithm	PrefAlgorithm	AlgorithmChoice	ProlificID	Captcha5	Consent	BotCheck2	BotCheck1	BotCheck1x	BotCheck1y	Delegate	Option	StartTimeOfExperiment	TimeOKWelcomeOK	TimeOKCaptcha1OK	TimeOKOutOK	TimeContinueOverview1OK	TimeConfirmOverview2OK	TimeOKOut2OK	BotCheck1attempt	BotWarning	TimeOKBotCheck2OK	TimeOKOut3OK	TimeContinueInstructionsPart1aOK	TimeContinueInstructionsPart1bOK	TimeContinueInstructionsPart1cOK	CompQ205	CompQ10	CompQ3	auxPage	TimeNextComprehensionQsOK	TimeBackComprehensionQsOK	TimeContinueComprehensionQsOK	Part1CQsPassedOnAttempt	CompQ3a	CompQ205a	CompQ10a	TimeOKComprehensionQsReplayOK	TimeNextComprehensionQsReplayOK	TimeBackComprehensionQsReplayOK	Screen	Warning	i	OptionsetID	OrderNumber	Up	Confident	TimeOKPart1OK	TimeNextPart1OK	ConfidentPart1	SatisfiedPart1	TimeOKInstructionsPart2aOK	TimeContinueInstructionsPart2bOK	TimeContinueInstructionsPart2cOK	TimeContinueInstructionsPart2dOK	CompQ1	CompQ2	CompQ1b	CompQ0	TimeNextComprehensionQsP2OK	TimeBackComprehensionQsP2OK	TimeContinueComprehensionQsP2OK	Part2CQsPassedOnAttempt	CompQ1a	CompQ2a	CompQ1ba	CompQ0a	TimeNextComprehensionQsP2ReplayOK	TimeBackComprehensionQsP2ReplayOK	TimeContinueComprehensionQsP2ReplayOK	TimeContinueIntroPart2OK	NthDecision	TimedOutDelegationChoice	TimedOutOptionChoice	SatisfactionRating	l	aux_switch1	DelegateA[1]	DelegateA[2]	DelegateA[3]	DelegateA[4]	DelegateA[5]	DelegateA[6]	DelegateA[7]	DelegateA[8]	TimedOutOptionChoiceA[1]	TimedOutOptionChoiceA[2]	TimedOutOptionChoiceA[3]	TimedOutOptionChoiceA[4]	TimedOutOptionChoiceA[5]	TimedOutOptionChoiceA[6]	TimedOutOptionChoiceA[7]	TimedOutOptionChoiceA[8]	OptionsetIDA[1]	OptionsetIDA[2]	OptionsetIDA[3]	OptionsetIDA[4]	OptionsetIDA[5]	OptionsetIDA[6]	OptionsetIDA[7]	OptionsetIDA[8]	OptionA[1]	OptionA[2]	OptionA[3]	OptionA[4]	OptionA[5]	OptionA[6]	OptionA[7]	OptionA[8]	TimedOutOptionChocie	auxSwitch	TimeContinuePart2OK	TimeOKPart2OK	DelegateHyp10	TimeNextHypothetic10OK	ProbOfBadComputerChoices	ProbOfAbsurdComputerChoices	ComputerRiskTaking	TimeNextReasonsForHypDelegationChoiceOK	DontTrust	BetterJob	HowExactly	MoreInfo	Responsibility4Choice	Responsibility4Outcome	DislikeRelyingOn	Reactance2Analysis	PerformanceCuriosity	Tedious	Other	OtherText	TimeNextReasonsForHypDelegationChoice2OK	RiskTaking	FinMarketExperience	FinanciallyResponsible	AIXperience	TimeNextQaire1OK	Female	Age	Education	HHIncome	TimeNextQaire2OK	Reliable	AIUsageInStudy	TimeNextQaire3OK	AIWasUsed4	TimeNextQaire3aOK	Manx	TimeNextQaire4FALSEOK	RandomPeriod	RelevantPayoff	Feedback	TimeProceedTHANKYOUOK	TotalSecondsInExperiment
260206_1528	137	subjects	1	1	68	0	1	0	0	1	0	0	1	0	"5ec1a76a903b335cae864ca8"	5	1	2	-1	52.52197802197802	0.002289983152433228	-1	-1	0	99999	99999	0	99999	99999	0	1	0	99999	0	99999	99999	99999	205	10	3	2	99999	0	99999	1	-99	-99	-99	0	0	0	0	-99	9	0	1	0	7	99999	99999	-99	8	99999	99999	99999	99999	1	1	1	0	99999	0	99999	2	1	2	1	0	99999	0	99999	99999	9	1	0	-99	18	-99	0	0	0	0	0	0	0	0	1	0	0	1	0	0	0	0	2	6	3	4	1	7	8	5	3	1	3	6	6	6	2	8	1	-99	99999	99999	1	99999	7	0	1	99999	0	1	0	0	0	0	0	0	1	0	0	""	99999	2	6	0	3	99999	0	39	4	35	99999	7	0	99999	""	0	""	0	5	225	""	99999	0
SessionID	TreatmentNumber	Table	Period	Subject	ClientNumber	LastClientNumber	Group	Profit	TotalProfit	Participate	LeaveStage
260206_1528	138	subjects	1	1	69	0	1	0	0	1	0
SessionID	TreatmentNumber	Table	Period	Subject	ClientNumber	LastClientNumber	Group	Profit	TotalProfit	Participate	LeaveStage	EVAlgorithm	PrefAlgorithm	AlgorithmChoice	ProlificID	Captcha5	Consent	BotCheck2	BotCheck1	BotCheck1x	BotCheck1y	Delegate	Option	StartTimeOfExperiment	TimeOKWelcomeOK	TimeOKCaptcha1OK	TimeOKOutOK	TimeContinueOverview1OK	TimeConfirmOverview2OK	TimeOKOut2OK	BotCheck1attempt	BotWarning	TimeOKBotCheck2OK	TimeOKOut3OK	TimeContinueInstructionsPart1aOK	TimeContinueInstructionsPart1bOK	TimeContinueInstructionsPart1cOK	CompQ205	CompQ10	CompQ3	auxPage	TimeNextComprehensionQsOK	TimeBackComprehensionQsOK	TimeContinueComprehensionQsOK	Part1CQsPassedOnAttempt	CompQ3a	CompQ205a	CompQ10a	TimeOKComprehensionQsReplayOK	TimeNextComprehensionQsReplayOK	TimeBackComprehensionQsReplayOK	Screen	Warning	i	OptionsetID	OrderNumber	Up	Confident	TimeOKPart1OK	TimeNextPart1OK	ConfidentPart1	SatisfiedPart1	TimeOKInstructionsPart2aOK	TimeContinueInstructionsPart2bOK	TimeContinueInstructionsPart2cOK	TimeContinueInstructionsPart2dOK	CompQ1	CompQ2	CompQ1b	CompQ0	TimeNextComprehensionQsP2OK	TimeBackComprehensionQsP2OK	TimeContinueComprehensionQsP2OK	Part2CQsPassedOnAttempt	CompQ1a	CompQ2a	CompQ1ba	CompQ0a	TimeNextComprehensionQsP2ReplayOK	TimeBackComprehensionQsP2ReplayOK	TimeContinueComprehensionQsP2ReplayOK	TimeContinueIntroPart2OK	NthDecision	TimedOutDelegationChoice	TimedOutOptionChoice	SatisfactionRating	l	aux_switch1	DelegateA[1]	DelegateA[2]	DelegateA[3]	DelegateA[4]	DelegateA[5]	DelegateA[6]	DelegateA[7]	DelegateA[8]	TimedOutOptionChoiceA[1]	TimedOutOptionChoiceA[2]	TimedOutOptionChoiceA[3]	TimedOutOptionChoiceA[4]	TimedOutOptionChoiceA[5]	TimedOutOptionChoiceA[6]	TimedOutOptionChoiceA[7]	TimedOutOptionChoiceA[8]	OptionsetIDA[1]	OptionsetIDA[2]	OptionsetIDA[3]	OptionsetIDA[4]	OptionsetIDA[5]	OptionsetIDA[6]	OptionsetIDA[7]	OptionsetIDA[8]	OptionA[1]	OptionA[2]	OptionA[3]	OptionA[4]	OptionA[5]	OptionA[6]	OptionA[7]	OptionA[8]	TimedOutOptionChocie	auxSwitch	TimeContinuePart2OK	TimeOKPart2OK	DelegateHyp10	TimeNextHypothetic10OK	ProbOfBadComputerChoices	ProbOfAbsurdComputerChoices	ComputerRiskTaking	TimeNextReasonsForHypDelegationChoiceOK	DontTrust	BetterJob	HowExactly	MoreInfo	Responsibility4Choice	Responsibility4Outcome	DislikeRelyingOn	Reactance2Analysis	PerformanceCuriosity	Tedious	Other	OtherText	TimeNextReasonsForHypDelegationChoice2OK	RiskTaking	FinMarketExperience	FinanciallyResponsible	AIXperience	TimeNextQaire1OK	Female	Age	Education	HHIncome	TimeNextQaire2OK	Reliable	AIUsageInStudy	TimeNextQaire3OK	AIWasUsed4	TimeNextQaire3aOK	Manx	TimeNextQaire4FALSEOK	RandomPeriod	RelevantPayoff	Feedback	TimeProceedTHANKYOUOK	TotalSecondsInExperiment
260206_1528	139	subjects	1	1	69	0	1	0	0	1	0	1	0	0	"681b781064a5701a5ceee3bc"	5	1	2	-1	51.89473684210526	-0.01420454545454547	-1	-1	0	99999	99999	0	99999	99999	0	1	0	99999	0	99999	99999	99999	205	10	3	1	99999	0	99999	1	-99	-99	-99	0	0	0	0	-99	9	0	2	0	6	99999	99999	-99	7	99999	99999	99999	99999	1	2	1	0	99999	0	99999	1	-99	-99	-99	-99	0	0	0	99999	9	1	0	-99	18	-99	0	0	0	1	0	0	0	0	0	0	0	0	0	0	0	0	1	8	6	4	2	5	7	3	5	2	2	8	3	8	6	1	1	-99	99999	99999	0	99999	4	0	2	99999	0	1	0	0	1	0	0	0	1	0	1	"I would take a higher chance of a low win over a lower chance of a high win, the computer cannot be instructed to take this into account"	99999	2	6	10	3	99999	1	54	5	35	99999	7	0	99999	""	0	""	0	3	235	""	99999	0
SessionID	TreatmentNumber	Table	Period	Subject	ClientNumber	LastClientNumber	Group	Profit	TotalProfit	Participate	LeaveStage	EVAlgorithm	PrefAlgorithm	AlgorithmChoice	ProlificID	Captcha5	Consent	BotCheck2	BotCheck1	BotCheck1x	BotCheck1y	Delegate	Option	StartTimeOfExperiment	TimeOKWelcomeOK	TimeOKCaptcha1OK	TimeOKOutOK	TimeContinueOverview1OK	TimeConfirmOverview2OK	TimeOKOut2OK	BotCheck1attempt	BotWarning	TimeOKBotCheck2OK	TimeOKOut3OK	TimeContinueInstructionsPart1aOK	TimeContinueInstructionsPart1bOK	TimeContinueInstructionsPart1cOK	CompQ205	CompQ10	CompQ3	auxPage	TimeNextComprehensionQsOK	TimeBackComprehensionQsOK	TimeContinueComprehensionQsOK	Part1CQsPassedOnAttempt	CompQ3a	CompQ205a	CompQ10a	TimeOKComprehensionQsReplayOK	TimeNextComprehensionQsReplayOK	TimeBackComprehensionQsReplayOK	Screen	Warning	i	OptionsetID	OrderNumber	Up	Confident	TimeOKPart1OK	TimeNextPart1OK	ConfidentPart1	SatisfiedPart1	TimeOKInstructionsPart2aOK	TimeContinueInstructionsPart2bOK	TimeContinueInstructionsPart2cOK	TimeContinueInstructionsPart2dOK	CompQ1	CompQ2	CompQ1b	CompQ0	TimeNextComprehensionQsP2OK	TimeBackComprehensionQsP2OK	TimeContinueComprehensionQsP2OK	Part2CQsPassedOnAttempt	CompQ1a	CompQ2a	CompQ1ba	CompQ0a	TimeNextComprehensionQsP2ReplayOK	TimeBackComprehensionQsP2ReplayOK	TimeContinueComprehensionQsP2ReplayOK	TimeContinueIntroPart2OK	NthDecision	TimedOutDelegationChoice	TimedOutOptionChoice	SatisfactionRating	l	aux_switch1	DelegateA[1]	DelegateA[2]	DelegateA[3]	DelegateA[4]	DelegateA[5]	DelegateA[6]	DelegateA[7]	DelegateA[8]	TimedOutOptionChoiceA[1]	TimedOutOptionChoiceA[2]	TimedOutOptionChoiceA[3]	TimedOutOptionChoiceA[4]	TimedOutOptionChoiceA[5]	TimedOutOptionChoiceA[6]	TimedOutOptionChoiceA[7]	TimedOutOptionChoiceA[8]	OptionsetIDA[1]	OptionsetIDA[2]	OptionsetIDA[3]	OptionsetIDA[4]	OptionsetIDA[5]	OptionsetIDA[6]	OptionsetIDA[7]	OptionsetIDA[8]	OptionA[1]	OptionA[2]	OptionA[3]	OptionA[4]	OptionA[5]	OptionA[6]	OptionA[7]	OptionA[8]	TimedOutOptionChocie	auxSwitch	TimeContinuePart2OK	TimeOKPart2OK	DelegateHyp10	TimeNextHypothetic10OK	ProbOfBadComputerChoices	ProbOfAbsurdComputerChoices	ComputerRiskTaking	TimeNextReasonsForHypDelegationChoiceOK	DontTrust	BetterJob	HowExactly	MoreInfo	Responsibility4Choice	Responsibility4Outcome	DislikeRelyingOn	Reactance2Analysis	PerformanceCuriosity	Tedious	Other	OtherText	TimeNextReasonsForHypDelegationChoice2OK	RiskTaking	FinMarketExperience	FinanciallyResponsible	AIXperience	TimeNextQaire1OK	Female	Age	Education	HHIncome	TimeNextQaire2OK	Reliable	AIUsageInStudy	TimeNextQaire3OK	AIWasUsed4	TimeNextQaire3aOK	Manx	TimeNextQaire4FALSEOK	RandomPeriod	RelevantPayoff	Feedback	TimeProceedTHANKYOUOK	TotalSecondsInExperiment
260206_1528	13	subjects	1	1	6	0	1	0	0	1	0	0	1	0	"6310a5c786d2abda637997c0"	5	1	2	-1	51.673948037957935	-0.010035570930032156	-1	-1	0	99999	99999	0	99999	99999	0	1	0	99999	0	99999	99999	99999	205	10	3	1	99999	0	99999	1	-99	-99	-99	0	0	0	0	-99	9	0	2	0	6	99999	99999	-99	5	99999	99999	99999	99999	1	2	1	0	99999	0	99999	1	-99	-99	-99	-99	0	0	0	99999	9	1	0	-99	18	-99	0	1	0	1	0	0	0	0	0	0	0	0	0	0	0	0	2	6	8	3	1	5	7	4	4	5	6	2	4	5	6	5	1	-99	99999	99999	0	99999	6	1	4	99999	0	1	0	0	1	0	0	0	1	0	0	""	99999	6	6	10	9	99999	0	44	4	15	99999	7	0	99999	""	0	""	0	5	225	""	99999	0
SessionID	TreatmentNumber	Table	Period	Subject	ClientNumber	LastClientNumber	Group	Profit	TotalProfit	Participate	LeaveStage
260206_1528	140	subjects	1	1	70	0	1	0	0	1	0
SessionID	TreatmentNumber	Table	Period	Subject	ClientNumber	LastClientNumber	Group	Profit	TotalProfit	Participate	LeaveStage	EVAlgorithm	PrefAlgorithm	AlgorithmChoice	ProlificID	Captcha5	Consent	BotCheck2	BotCheck1	BotCheck1x	BotCheck1y	Delegate	Option	StartTimeOfExperiment	TimeOKWelcomeOK	TimeOKCaptcha1OK	TimeOKOutOK	TimeContinueOverview1OK	TimeConfirmOverview2OK	TimeOKOut2OK	BotCheck1attempt	BotWarning	TimeOKBotCheck2OK	TimeOKOut3OK	TimeContinueInstructionsPart1aOK	TimeContinueInstructionsPart1bOK	TimeContinueInstructionsPart1cOK	CompQ205	CompQ10	CompQ3	auxPage	TimeNextComprehensionQsOK	TimeBackComprehensionQsOK	TimeContinueComprehensionQsOK	Part1CQsPassedOnAttempt	CompQ3a	CompQ205a	CompQ10a	TimeOKComprehensionQsReplayOK	TimeNextComprehensionQsReplayOK	TimeBackComprehensionQsReplayOK	Screen	Warning	i	OptionsetID	OrderNumber	Up	Confident	TimeOKPart1OK	TimeNextPart1OK	ConfidentPart1	SatisfiedPart1	TimeOKInstructionsPart2aOK	TimeContinueInstructionsPart2bOK	TimeContinueInstructionsPart2cOK	TimeContinueInstructionsPart2dOK	CompQ1	CompQ2	CompQ1b	CompQ0	TimeNextComprehensionQsP2OK	TimeBackComprehensionQsP2OK	TimeContinueComprehensionQsP2OK	Part2CQsPassedOnAttempt	CompQ1a	CompQ2a	CompQ1ba	CompQ0a	TimeNextComprehensionQsP2ReplayOK	TimeBackComprehensionQsP2ReplayOK	TimeContinueComprehensionQsP2ReplayOK	TimeContinueIntroPart2OK	NthDecision	TimedOutDelegationChoice	TimedOutOptionChoice	SatisfactionRating	l	aux_switch1	DelegateA[1]	DelegateA[2]	DelegateA[3]	DelegateA[4]	DelegateA[5]	DelegateA[6]	DelegateA[7]	DelegateA[8]	TimedOutOptionChoiceA[1]	TimedOutOptionChoiceA[2]	TimedOutOptionChoiceA[3]	TimedOutOptionChoiceA[4]	TimedOutOptionChoiceA[5]	TimedOutOptionChoiceA[6]	TimedOutOptionChoiceA[7]	TimedOutOptionChoiceA[8]	OptionsetIDA[1]	OptionsetIDA[2]	OptionsetIDA[3]	OptionsetIDA[4]	OptionsetIDA[5]	OptionsetIDA[6]	OptionsetIDA[7]	OptionsetIDA[8]	OptionA[1]	OptionA[2]	OptionA[3]	OptionA[4]	OptionA[5]	OptionA[6]	OptionA[7]	OptionA[8]	TimedOutOptionChocie	auxSwitch	TimeContinuePart2OK	TimeOKPart2OK	DelegateHyp10	TimeNextHypothetic10OK	ProbOfBadComputerChoices	ProbOfAbsurdComputerChoices	ComputerRiskTaking	TimeNextReasonsForHypDelegationChoiceOK	DontTrust	BetterJob	HowExactly	MoreInfo	Responsibility4Choice	Responsibility4Outcome	DislikeRelyingOn	Reactance2Analysis	PerformanceCuriosity	Tedious	Other	OtherText	TimeNextReasonsForHypDelegationChoice2OK	RiskTaking	FinMarketExperience	FinanciallyResponsible	AIXperience	TimeNextQaire1OK	Female	Age	Education	HHIncome	TimeNextQaire2OK	Reliable	AIUsageInStudy	TimeNextQaire3OK	AIWasUsed4	TimeNextQaire3aOK	Manx	TimeNextQaire4FALSEOK	RandomPeriod	RelevantPayoff	Feedback	TimeProceedTHANKYOUOK	TotalSecondsInExperiment
260206_1528	141	subjects	1	1	70	0	1	0	0	1	0	0	1	0	"63f8eaeb261f726a83d65177"	5	1	2	-1	51.05263157894737	0.0055248618784530246	-1	-1	0	99999	99999	0	99999	99999	0	1	0	99999	0	99999	99999	99999	205	10	3	1	99999	0	99999	1	-99	-99	-99	0	0	0	0	-99	9	0	1	0	8	99999	99999	-99	6	99999	99999	99999	99999	1	2	1	0	99999	99999	99999	1	-99	-99	-99	-99	0	0	0	99999	9	1	0	-99	18	-99	0	0	0	0	0	0	0	0	1	0	0	0	0	0	0	0	2	4	8	3	6	5	1	7	4	6	1	7	1	8	6	6	1	-99	99999	99999	0	99999	5	3	5	99999	1	1	0	0	0	1	0	0	0	0	0	""	99999	2	2	0	0	99999	0	20	2	75	99999	6	0	99999	""	0	""	0	5	0	""	99999	0
SessionID	TreatmentNumber	Table	Period	Subject	ClientNumber	LastClientNumber	Group	Profit	TotalProfit	Participate	LeaveStage
260206_1528	142	subjects	1	1	71	0	1	0	0	1	0
SessionID	TreatmentNumber	Table	Period	Subject	ClientNumber	LastClientNumber	Group	Profit	TotalProfit	Participate	LeaveStage	EVAlgorithm	PrefAlgorithm	AlgorithmChoice	ProlificID	Captcha5	Consent	BotCheck2	BotCheck1	BotCheck1x	BotCheck1y	Delegate	Option	StartTimeOfExperiment	TimeOKWelcomeOK	TimeOKCaptcha1OK	TimeOKOutOK	TimeContinueOverview1OK	TimeConfirmOverview2OK	TimeOKOut2OK	BotCheck1attempt	BotWarning	TimeOKBotCheck2OK	TimeOKOut3OK	TimeContinueInstructionsPart1aOK	TimeContinueInstructionsPart1bOK	TimeContinueInstructionsPart1cOK	CompQ205	CompQ10	CompQ3	auxPage	TimeNextComprehensionQsOK	TimeBackComprehensionQsOK	TimeContinueComprehensionQsOK	Part1CQsPassedOnAttempt	CompQ3a	CompQ205a	CompQ10a	TimeOKComprehensionQsReplayOK	TimeNextComprehensionQsReplayOK	TimeBackComprehensionQsReplayOK	Screen	Warning	i	OptionsetID	OrderNumber	Up	Confident	TimeOKPart1OK	TimeNextPart1OK	ConfidentPart1	SatisfiedPart1	TimeOKInstructionsPart2aOK	TimeContinueInstructionsPart2bOK	TimeContinueInstructionsPart2cOK	TimeContinueInstructionsPart2dOK	CompQ1	CompQ2	CompQ1b	CompQ0	TimeNextComprehensionQsP2OK	TimeBackComprehensionQsP2OK	TimeContinueComprehensionQsP2OK	Part2CQsPassedOnAttempt	CompQ1a	CompQ2a	CompQ1ba	CompQ0a	TimeNextComprehensionQsP2ReplayOK	TimeBackComprehensionQsP2ReplayOK	TimeContinueComprehensionQsP2ReplayOK	TimeContinueIntroPart2OK	NthDecision	TimedOutDelegationChoice	TimedOutOptionChoice	SatisfactionRating	l	aux_switch1	DelegateA[1]	DelegateA[2]	DelegateA[3]	DelegateA[4]	DelegateA[5]	DelegateA[6]	DelegateA[7]	DelegateA[8]	TimedOutOptionChoiceA[1]	TimedOutOptionChoiceA[2]	TimedOutOptionChoiceA[3]	TimedOutOptionChoiceA[4]	TimedOutOptionChoiceA[5]	TimedOutOptionChoiceA[6]	TimedOutOptionChoiceA[7]	TimedOutOptionChoiceA[8]	OptionsetIDA[1]	OptionsetIDA[2]	OptionsetIDA[3]	OptionsetIDA[4]	OptionsetIDA[5]	OptionsetIDA[6]	OptionsetIDA[7]	OptionsetIDA[8]	OptionA[1]	OptionA[2]	OptionA[3]	OptionA[4]	OptionA[5]	OptionA[6]	OptionA[7]	OptionA[8]	TimedOutOptionChocie	auxSwitch	TimeContinuePart2OK	TimeOKPart2OK	DelegateHyp10	TimeNextHypothetic10OK	ProbOfBadComputerChoices	ProbOfAbsurdComputerChoices	ComputerRiskTaking	TimeNextReasonsForHypDelegationChoiceOK	DontTrust	BetterJob	HowExactly	MoreInfo	Responsibility4Choice	Responsibility4Outcome	DislikeRelyingOn	Reactance2Analysis	PerformanceCuriosity	Tedious	Other	OtherText	TimeNextReasonsForHypDelegationChoice2OK	RiskTaking	FinMarketExperience	FinanciallyResponsible	AIXperience	TimeNextQaire1OK	Female	Age	Education	HHIncome	TimeNextQaire2OK	Reliable	AIUsageInStudy	TimeNextQaire3OK	AIWasUsed4	TimeNextQaire3aOK	Manx	TimeNextQaire4FALSEOK	RandomPeriod	RelevantPayoff	Feedback	TimeProceedTHANKYOUOK	TotalSecondsInExperiment
260206_1528	143	subjects	1	1	71	0	1	0	0	1	0	0	1	0	"5b94fc0fc168f80001104860"	5	1	2	-1	53.89497064044448	-0.005911588668823242	-1	-1	0	99999	99999	0	99999	99999	0	1	0	99999	0	99999	99999	99999	205	20	3	2	99999	0	99999	2	3	205	10	99999	99999	0	0	-99	9	0	2	1	8	99999	99999	-99	8	99999	99999	99999	99999	0	1	8	0	99999	0	99999	0	1	2	8	0	99999	0	99999	99999	9	1	0	-99	18	-99	1	0	0	0	1	0	0	0	0	0	0	0	0	0	0	0	4	8	2	1	6	7	3	5	4	1	4	6	5	1	3	8	1	-99	99999	99999	0	99999	5	2	9	99999	0	0	0	0	1	0	0	0	0	0	0	""	99999	6	0	6	3	99999	1	51	1	25	99999	6	0	99999	""	0	""	0	1	0	"no"	99999	0
SessionID	TreatmentNumber	Table	Period	Subject	ClientNumber	LastClientNumber	Group	Profit	TotalProfit	Participate	LeaveStage
260206_1528	144	subjects	1	1	72	0	1	0	0	1	0
SessionID	TreatmentNumber	Table	Period	Subject	ClientNumber	LastClientNumber	Group	Profit	TotalProfit	Participate	LeaveStage	EVAlgorithm	PrefAlgorithm	AlgorithmChoice	ProlificID	Captcha5	Consent	BotCheck2	BotCheck1	BotCheck1x	BotCheck1y	Delegate	Option	StartTimeOfExperiment	TimeOKWelcomeOK	TimeOKCaptcha1OK	TimeOKOutOK	TimeContinueOverview1OK	TimeConfirmOverview2OK	TimeOKOut2OK	BotCheck1attempt	BotWarning	TimeOKBotCheck2OK	TimeOKOut3OK	TimeContinueInstructionsPart1aOK	TimeContinueInstructionsPart1bOK	TimeContinueInstructionsPart1cOK	CompQ205	CompQ10	CompQ3	auxPage	TimeNextComprehensionQsOK	TimeBackComprehensionQsOK	TimeContinueComprehensionQsOK	Part1CQsPassedOnAttempt	CompQ3a	CompQ205a	CompQ10a	TimeOKComprehensionQsReplayOK	TimeNextComprehensionQsReplayOK	TimeBackComprehensionQsReplayOK	Screen	Warning	i	OptionsetID	OrderNumber	Up	Confident	TimeOKPart1OK	TimeNextPart1OK	ConfidentPart1	SatisfiedPart1	TimeOKInstructionsPart2aOK	TimeContinueInstructionsPart2bOK	TimeContinueInstructionsPart2cOK	TimeContinueInstructionsPart2dOK	CompQ1	CompQ2	CompQ1b	CompQ0	TimeNextComprehensionQsP2OK	TimeBackComprehensionQsP2OK	TimeContinueComprehensionQsP2OK	Part2CQsPassedOnAttempt	CompQ1a	CompQ2a	CompQ1ba	CompQ0a	TimeNextComprehensionQsP2ReplayOK	TimeBackComprehensionQsP2ReplayOK	TimeContinueComprehensionQsP2ReplayOK	TimeContinueIntroPart2OK	NthDecision	TimedOutDelegationChoice	TimedOutOptionChoice	SatisfactionRating	l	aux_switch1	DelegateA[1]	DelegateA[2]	DelegateA[3]	DelegateA[4]	DelegateA[5]	DelegateA[6]	DelegateA[7]	DelegateA[8]	TimedOutOptionChoiceA[1]	TimedOutOptionChoiceA[2]	TimedOutOptionChoiceA[3]	TimedOutOptionChoiceA[4]	TimedOutOptionChoiceA[5]	TimedOutOptionChoiceA[6]	TimedOutOptionChoiceA[7]	TimedOutOptionChoiceA[8]	OptionsetIDA[1]	OptionsetIDA[2]	OptionsetIDA[3]	OptionsetIDA[4]	OptionsetIDA[5]	OptionsetIDA[6]	OptionsetIDA[7]	OptionsetIDA[8]	OptionA[1]	OptionA[2]	OptionA[3]	OptionA[4]	OptionA[5]	OptionA[6]	OptionA[7]	OptionA[8]	TimedOutOptionChocie	auxSwitch	TimeContinuePart2OK	TimeOKPart2OK	DelegateHyp10	TimeNextHypothetic10OK	ProbOfBadComputerChoices	ProbOfAbsurdComputerChoices	ComputerRiskTaking	TimeNextReasonsForHypDelegationChoiceOK	DontTrust	BetterJob	HowExactly	MoreInfo	Responsibility4Choice	Responsibility4Outcome	DislikeRelyingOn	Reactance2Analysis	PerformanceCuriosity	Tedious	Other	OtherText	TimeNextReasonsForHypDelegationChoice2OK	RiskTaking	FinMarketExperience	FinanciallyResponsible	AIXperience	TimeNextQaire1OK	Female	Age	Education	HHIncome	TimeNextQaire2OK	Reliable	AIUsageInStudy	TimeNextQaire3OK	AIWasUsed4	TimeNextQaire3aOK	Manx	TimeNextQaire4FALSEOK	RandomPeriod	RelevantPayoff	Feedback	TimeProceedTHANKYOUOK	TotalSecondsInExperiment
260206_1528	145	subjects	1	1	72	0	1	0	0	1	0	0	1	0	"59b5a275c05bb50001eb3c4b"	5	1	2	-1	51.90955226229266	0.02196388876899169	-1	-1	0	99999	99999	0	99999	99999	0	1	0	99999	0	99999	99999	99999	205	25	3	2	99999	0	99999	-99	4	205	25	99999	99999	0	0	-99	9	0	2	1	9	99999	99999	-99	9	99999	99999	99999	99999	1	1	1	10	99999	0	99999	0	0	1	1	20	99999	0	99999	99999	9	1	0	-99	18	-99	1	1	0	1	-1	1	1	1	0	0	0	0	0	0	0	0	2	3	5	6	8	7	4	1	7	2	8	5	-1	4	4	3	1	-99	99999	99999	1	99999	2	8	8	99999	0	1	0	0	0	0	0	0	0	0	0	""	99999	7	6	8	10	99999	0	47	1	25	99999	7	0	99999	""	0	""	0	1	255	""	99999	0
SessionID	TreatmentNumber	Table	Period	Subject	ClientNumber	LastClientNumber	Group	Profit	TotalProfit	Participate	LeaveStage
260206_1528	146	subjects	1	1	73	0	1	0	0	1	0
SessionID	TreatmentNumber	Table	Period	Subject	ClientNumber	LastClientNumber	Group	Profit	TotalProfit	Participate	LeaveStage	EVAlgorithm	PrefAlgorithm	AlgorithmChoice	ProlificID	Captcha5	Consent	BotCheck2	BotCheck1	BotCheck1x	BotCheck1y	Delegate	Option	StartTimeOfExperiment	TimeOKWelcomeOK	TimeOKCaptcha1OK	TimeOKOutOK	TimeContinueOverview1OK	TimeConfirmOverview2OK	TimeOKOut2OK	BotCheck1attempt	BotWarning	TimeOKBotCheck2OK	TimeOKOut3OK	TimeContinueInstructionsPart1aOK	TimeContinueInstructionsPart1bOK	TimeContinueInstructionsPart1cOK	CompQ205	CompQ10	CompQ3	auxPage	TimeNextComprehensionQsOK	TimeBackComprehensionQsOK	TimeContinueComprehensionQsOK	Part1CQsPassedOnAttempt	CompQ3a	CompQ205a	CompQ10a	TimeOKComprehensionQsReplayOK	TimeNextComprehensionQsReplayOK	TimeBackComprehensionQsReplayOK	Screen	Warning	i	OptionsetID	OrderNumber	Up	Confident	TimeOKPart1OK	TimeNextPart1OK	ConfidentPart1	SatisfiedPart1	TimeOKInstructionsPart2aOK	TimeContinueInstructionsPart2bOK	TimeContinueInstructionsPart2cOK	TimeContinueInstructionsPart2dOK	CompQ1	CompQ2	CompQ1b	CompQ0	TimeNextComprehensionQsP2OK	TimeBackComprehensionQsP2OK	TimeContinueComprehensionQsP2OK	Part2CQsPassedOnAttempt	CompQ1a	CompQ2a	CompQ1ba	CompQ0a	TimeNextComprehensionQsP2ReplayOK	TimeBackComprehensionQsP2ReplayOK	TimeContinueComprehensionQsP2ReplayOK	TimeContinueIntroPart2OK	NthDecision	TimedOutDelegationChoice	TimedOutOptionChoice	SatisfactionRating	l	aux_switch1	DelegateA[1]	DelegateA[2]	DelegateA[3]	DelegateA[4]	DelegateA[5]	DelegateA[6]	DelegateA[7]	DelegateA[8]	TimedOutOptionChoiceA[1]	TimedOutOptionChoiceA[2]	TimedOutOptionChoiceA[3]	TimedOutOptionChoiceA[4]	TimedOutOptionChoiceA[5]	TimedOutOptionChoiceA[6]	TimedOutOptionChoiceA[7]	TimedOutOptionChoiceA[8]	OptionsetIDA[1]	OptionsetIDA[2]	OptionsetIDA[3]	OptionsetIDA[4]	OptionsetIDA[5]	OptionsetIDA[6]	OptionsetIDA[7]	OptionsetIDA[8]	OptionA[1]	OptionA[2]	OptionA[3]	OptionA[4]	OptionA[5]	OptionA[6]	OptionA[7]	OptionA[8]	TimedOutOptionChocie	auxSwitch	TimeContinuePart2OK	TimeOKPart2OK	DelegateHyp10	TimeNextHypothetic10OK	ProbOfBadComputerChoices	ProbOfAbsurdComputerChoices	ComputerRiskTaking	TimeNextReasonsForHypDelegationChoiceOK	DontTrust	BetterJob	HowExactly	MoreInfo	Responsibility4Choice	Responsibility4Outcome	DislikeRelyingOn	Reactance2Analysis	PerformanceCuriosity	Tedious	Other	OtherText	TimeNextReasonsForHypDelegationChoice2OK	RiskTaking	FinMarketExperience	FinanciallyResponsible	AIXperience	TimeNextQaire1OK	Female	Age	Education	HHIncome	TimeNextQaire2OK	Reliable	AIUsageInStudy	TimeNextQaire3OK	AIWasUsed4	TimeNextQaire3aOK	Manx	TimeNextQaire4FALSEOK	RandomPeriod	RelevantPayoff	Feedback	TimeProceedTHANKYOUOK	TotalSecondsInExperiment
260206_1528	147	subjects	1	1	73	0	1	0	0	1	0	0	1	0	"66854ca22a0b1e7e87b469a4"	5	1	2	-1	52.28070175438596	0.002032520325203291	-1	-1	0	99999	99999	0	99999	99999	0	1	0	99999	0	99999	99999	99999	205	10	1	1	99999	99999	99999	2	3	205	10	99999	99999	0	0	-99	9	0	2	0	10	99999	99999	-99	7	99999	99999	99999	99999	1	2	1	0	99999	0	99999	1	-99	-99	-99	-99	0	0	0	99999	9	1	0	-99	18	-99	1	1	1	0	1	1	1	1	0	0	0	0	0	0	0	0	4	5	8	2	3	7	6	1	8	8	4	8	2	4	4	3	1	-99	99999	99999	1	99999	3	0	7	99999	0	1	0	0	0	0	0	0	1	0	1	"I liked the surprise"	99999	2	7	3	9	99999	0	47	4	105	99999	7	0	99999	""	0	""	0	7	0	""	99999	0
SessionID	TreatmentNumber	Table	Period	Subject	ClientNumber	LastClientNumber	Group	Profit	TotalProfit	Participate	LeaveStage
260206_1528	148	subjects	1	1	74	0	1	0	0	1	0
SessionID	TreatmentNumber	Table	Period	Subject	ClientNumber	LastClientNumber	Group	Profit	TotalProfit	Participate	LeaveStage	EVAlgorithm	PrefAlgorithm	AlgorithmChoice	ProlificID	Captcha5	Consent	BotCheck2	BotCheck1	BotCheck1x	BotCheck1y	Delegate	Option	StartTimeOfExperiment	TimeOKWelcomeOK	TimeOKCaptcha1OK	TimeOKOutOK	TimeContinueOverview1OK	TimeConfirmOverview2OK	TimeOKOut2OK	BotCheck1attempt	BotWarning	TimeOKBotCheck2OK	TimeOKOut3OK	TimeContinueInstructionsPart1aOK	TimeContinueInstructionsPart1bOK	TimeContinueInstructionsPart1cOK	CompQ205	CompQ10	CompQ3	auxPage	TimeNextComprehensionQsOK	TimeBackComprehensionQsOK	TimeContinueComprehensionQsOK	Part1CQsPassedOnAttempt	CompQ3a	CompQ205a	CompQ10a	TimeOKComprehensionQsReplayOK	TimeNextComprehensionQsReplayOK	TimeBackComprehensionQsReplayOK	Screen	Warning	i	OptionsetID	OrderNumber	Up	Confident	TimeOKPart1OK	TimeNextPart1OK	ConfidentPart1	SatisfiedPart1	TimeOKInstructionsPart2aOK	TimeContinueInstructionsPart2bOK	TimeContinueInstructionsPart2cOK	TimeContinueInstructionsPart2dOK	CompQ1	CompQ2	CompQ1b	CompQ0	TimeNextComprehensionQsP2OK	TimeBackComprehensionQsP2OK	TimeContinueComprehensionQsP2OK	Part2CQsPassedOnAttempt	CompQ1a	CompQ2a	CompQ1ba	CompQ0a	TimeNextComprehensionQsP2ReplayOK	TimeBackComprehensionQsP2ReplayOK	TimeContinueComprehensionQsP2ReplayOK	TimeContinueIntroPart2OK	NthDecision	TimedOutDelegationChoice	TimedOutOptionChoice	SatisfactionRating	l	aux_switch1	DelegateA[1]	DelegateA[2]	DelegateA[3]	DelegateA[4]	DelegateA[5]	DelegateA[6]	DelegateA[7]	DelegateA[8]	TimedOutOptionChoiceA[1]	TimedOutOptionChoiceA[2]	TimedOutOptionChoiceA[3]	TimedOutOptionChoiceA[4]	TimedOutOptionChoiceA[5]	TimedOutOptionChoiceA[6]	TimedOutOptionChoiceA[7]	TimedOutOptionChoiceA[8]	OptionsetIDA[1]	OptionsetIDA[2]	OptionsetIDA[3]	OptionsetIDA[4]	OptionsetIDA[5]	OptionsetIDA[6]	OptionsetIDA[7]	OptionsetIDA[8]	OptionA[1]	OptionA[2]	OptionA[3]	OptionA[4]	OptionA[5]	OptionA[6]	OptionA[7]	OptionA[8]	TimedOutOptionChocie	auxSwitch	TimeContinuePart2OK	TimeOKPart2OK	DelegateHyp10	TimeNextHypothetic10OK	ProbOfBadComputerChoices	ProbOfAbsurdComputerChoices	ComputerRiskTaking	TimeNextReasonsForHypDelegationChoiceOK	DontTrust	BetterJob	HowExactly	MoreInfo	Responsibility4Choice	Responsibility4Outcome	DislikeRelyingOn	Reactance2Analysis	PerformanceCuriosity	Tedious	Other	OtherText	TimeNextReasonsForHypDelegationChoice2OK	RiskTaking	FinMarketExperience	FinanciallyResponsible	AIXperience	TimeNextQaire1OK	Female	Age	Education	HHIncome	TimeNextQaire2OK	Reliable	AIUsageInStudy	TimeNextQaire3OK	AIWasUsed4	TimeNextQaire3aOK	Manx	TimeNextQaire4FALSEOK	RandomPeriod	RelevantPayoff	Feedback	TimeProceedTHANKYOUOK	TotalSecondsInExperiment
260206_1528	149	subjects	1	1	74	0	1	0	0	1	0	1	0	0	"6663f3b2bc244a2d789b70a3"	5	1	2	-1	52.20549128605769	0.0157895195753055	-1	-1	0	99999	99999	0	99999	99999	0	1	0	99999	0	99999	99999	99999	205	10	3	2	99999	0	99999	1	-99	-99	-99	0	0	0	0	-99	9	0	1	0	9	99999	99999	-99	7	99999	99999	99999	99999	1	1	1	0	99999	0	99999	0	0	0	1	0	99999	0	99999	99999	9	1	0	-99	18	-99	1	1	1	1	1	0	0	0	0	0	0	0	0	0	0	0	1	6	4	5	7	2	3	8	3	5	8	8	4	4	5	4	1	-99	99999	99999	0	99999	1	1	9	99999	1	1	0	0	0	0	0	0	0	0	0	""	99999	2	3	8	9	99999	1	36	4	35	99999	7	0	99999	""	0	""	0	8	390	""	99999	0
SessionID	TreatmentNumber	Table	Period	Subject	ClientNumber	LastClientNumber	Group	Profit	TotalProfit	Participate	LeaveStage
260206_1528	14	subjects	1	1	7	0	1	0	0	1	0
SessionID	TreatmentNumber	Table	Period	Subject	ClientNumber	LastClientNumber	Group	Profit	TotalProfit	Participate	LeaveStage
260206_1528	150	subjects	1	1	75	0	1	0	0	1	0
SessionID	TreatmentNumber	Table	Period	Subject	ClientNumber	LastClientNumber	Group	Profit	TotalProfit	Participate	LeaveStage
260206_1528	152	subjects	1	1	76	0	1	0	0	1	0
SessionID	TreatmentNumber	Table	Period	Subject	ClientNumber	LastClientNumber	Group	Profit	TotalProfit	Participate	LeaveStage	EVAlgorithm	PrefAlgorithm	AlgorithmChoice	ProlificID	Captcha5	Consent	BotCheck2	BotCheck1	BotCheck1x	BotCheck1y	Delegate	Option	StartTimeOfExperiment	TimeOKWelcomeOK	TimeOKCaptcha1OK	TimeOKOutOK	TimeContinueOverview1OK	TimeConfirmOverview2OK	TimeOKOut2OK	BotCheck1attempt	BotWarning	TimeOKBotCheck2OK	TimeOKOut3OK	TimeContinueInstructionsPart1aOK	TimeContinueInstructionsPart1bOK	TimeContinueInstructionsPart1cOK	CompQ205	CompQ10	CompQ3	auxPage	TimeNextComprehensionQsOK	TimeBackComprehensionQsOK	TimeContinueComprehensionQsOK	Part1CQsPassedOnAttempt	CompQ3a	CompQ205a	CompQ10a	TimeOKComprehensionQsReplayOK	TimeNextComprehensionQsReplayOK	TimeBackComprehensionQsReplayOK	Screen	Warning	i	OptionsetID	OrderNumber	Up	Confident	TimeOKPart1OK	TimeNextPart1OK	ConfidentPart1	SatisfiedPart1	TimeOKInstructionsPart2aOK	TimeContinueInstructionsPart2bOK	TimeContinueInstructionsPart2cOK	TimeContinueInstructionsPart2dOK	CompQ1	CompQ2	CompQ1b	CompQ0	TimeNextComprehensionQsP2OK	TimeBackComprehensionQsP2OK	TimeContinueComprehensionQsP2OK	Part2CQsPassedOnAttempt	CompQ1a	CompQ2a	CompQ1ba	CompQ0a	TimeNextComprehensionQsP2ReplayOK	TimeBackComprehensionQsP2ReplayOK	TimeContinueComprehensionQsP2ReplayOK	TimeContinueIntroPart2OK	NthDecision	TimedOutDelegationChoice	TimedOutOptionChoice	SatisfactionRating	l	aux_switch1	DelegateA[1]	DelegateA[2]	DelegateA[3]	DelegateA[4]	DelegateA[5]	DelegateA[6]	DelegateA[7]	DelegateA[8]	TimedOutOptionChoiceA[1]	TimedOutOptionChoiceA[2]	TimedOutOptionChoiceA[3]	TimedOutOptionChoiceA[4]	TimedOutOptionChoiceA[5]	TimedOutOptionChoiceA[6]	TimedOutOptionChoiceA[7]	TimedOutOptionChoiceA[8]	OptionsetIDA[1]	OptionsetIDA[2]	OptionsetIDA[3]	OptionsetIDA[4]	OptionsetIDA[5]	OptionsetIDA[6]	OptionsetIDA[7]	OptionsetIDA[8]	OptionA[1]	OptionA[2]	OptionA[3]	OptionA[4]	OptionA[5]	OptionA[6]	OptionA[7]	OptionA[8]	TimedOutOptionChocie	auxSwitch	TimeContinuePart2OK	TimeOKPart2OK	DelegateHyp10	TimeNextHypothetic10OK	ProbOfBadComputerChoices	ProbOfAbsurdComputerChoices	ComputerRiskTaking	TimeNextReasonsForHypDelegationChoiceOK	DontTrust	BetterJob	HowExactly	MoreInfo	Responsibility4Choice	Responsibility4Outcome	DislikeRelyingOn	Reactance2Analysis	PerformanceCuriosity	Tedious	Other	OtherText	TimeNextReasonsForHypDelegationChoice2OK	RiskTaking	FinMarketExperience	FinanciallyResponsible	AIXperience	TimeNextQaire1OK	Female	Age	Education	HHIncome	TimeNextQaire2OK	Reliable	AIUsageInStudy	TimeNextQaire3OK	AIWasUsed4	TimeNextQaire3aOK	Manx	TimeNextQaire4FALSEOK	RandomPeriod	RelevantPayoff	Feedback	TimeProceedTHANKYOUOK	TotalSecondsInExperiment
260206_1528	153	subjects	1	1	76	0	1	0	0	1	0	0	1	0	"63039343fd5a2e6fb88d2c61"	5	1	2	-1	53.50055066079295	0.002617801047120394	-1	-1	0	99999	99999	0	99999	99999	0	1	0	99999	0	99999	99999	99999	205	10	3	2	99999	0	99999	1	-99	-99	-99	0	0	0	0	-99	9	0	2	1	9	99999	99999	-99	8	99999	99999	99999	99999	1	2	8	0	99999	0	99999	0	1	1	1	0	99999	0	99999	99999	9	1	0	-99	18	-99	1	1	1	1	1	1	1	1	0	0	0	0	0	0	0	0	4	2	7	8	1	6	3	5	4	7	4	4	6	5	7	8	1	0	99999	99999	1	99999	2	0	2	99999	0	1	0	0	0	0	0	0	0	0	0	""	99999	3	2	6	5	99999	0	42	2	45	99999	7	0	99999	""	0	""	0	1	390	"No"	99999	0
SessionID	TreatmentNumber	Table	Period	Subject	ClientNumber	LastClientNumber	Group	Profit	TotalProfit	Participate	LeaveStage
260206_1528	154	subjects	1	1	77	0	1	0	0	1	0
SessionID	TreatmentNumber	Table	Period	Subject	ClientNumber	LastClientNumber	Group	Profit	TotalProfit	Participate	LeaveStage	EVAlgorithm	PrefAlgorithm	AlgorithmChoice	ProlificID	Captcha5	Consent	BotCheck2	BotCheck1	BotCheck1x	BotCheck1y	Delegate	Option	StartTimeOfExperiment	TimeOKWelcomeOK	TimeOKCaptcha1OK	TimeOKOutOK	TimeContinueOverview1OK	TimeConfirmOverview2OK	TimeOKOut2OK	BotCheck1attempt	BotWarning	TimeOKBotCheck2OK	TimeOKOut3OK	TimeContinueInstructionsPart1aOK	TimeContinueInstructionsPart1bOK	TimeContinueInstructionsPart1cOK	CompQ205	CompQ10	CompQ3	auxPage	TimeNextComprehensionQsOK	TimeBackComprehensionQsOK	TimeContinueComprehensionQsOK	Part1CQsPassedOnAttempt	CompQ3a	CompQ205a	CompQ10a	TimeOKComprehensionQsReplayOK	TimeNextComprehensionQsReplayOK	TimeBackComprehensionQsReplayOK	Screen	Warning	i	OptionsetID	OrderNumber	Up	Confident	TimeOKPart1OK	TimeNextPart1OK	ConfidentPart1	SatisfiedPart1	TimeOKInstructionsPart2aOK	TimeContinueInstructionsPart2bOK	TimeContinueInstructionsPart2cOK	TimeContinueInstructionsPart2dOK	CompQ1	CompQ2	CompQ1b	CompQ0	TimeNextComprehensionQsP2OK	TimeBackComprehensionQsP2OK	TimeContinueComprehensionQsP2OK	Part2CQsPassedOnAttempt	CompQ1a	CompQ2a	CompQ1ba	CompQ0a	TimeNextComprehensionQsP2ReplayOK	TimeBackComprehensionQsP2ReplayOK	TimeContinueComprehensionQsP2ReplayOK	TimeContinueIntroPart2OK	NthDecision	TimedOutDelegationChoice	TimedOutOptionChoice	SatisfactionRating	l	aux_switch1	DelegateA[1]	DelegateA[2]	DelegateA[3]	DelegateA[4]	DelegateA[5]	DelegateA[6]	DelegateA[7]	DelegateA[8]	TimedOutOptionChoiceA[1]	TimedOutOptionChoiceA[2]	TimedOutOptionChoiceA[3]	TimedOutOptionChoiceA[4]	TimedOutOptionChoiceA[5]	TimedOutOptionChoiceA[6]	TimedOutOptionChoiceA[7]	TimedOutOptionChoiceA[8]	OptionsetIDA[1]	OptionsetIDA[2]	OptionsetIDA[3]	OptionsetIDA[4]	OptionsetIDA[5]	OptionsetIDA[6]	OptionsetIDA[7]	OptionsetIDA[8]	OptionA[1]	OptionA[2]	OptionA[3]	OptionA[4]	OptionA[5]	OptionA[6]	OptionA[7]	OptionA[8]	TimedOutOptionChocie	auxSwitch	TimeContinuePart2OK	TimeOKPart2OK	DelegateHyp10	TimeNextHypothetic10OK	ProbOfBadComputerChoices	ProbOfAbsurdComputerChoices	ComputerRiskTaking	TimeNextReasonsForHypDelegationChoiceOK	DontTrust	BetterJob	HowExactly	MoreInfo	Responsibility4Choice	Responsibility4Outcome	DislikeRelyingOn	Reactance2Analysis	PerformanceCuriosity	Tedious	Other	OtherText	TimeNextReasonsForHypDelegationChoice2OK	RiskTaking	FinMarketExperience	FinanciallyResponsible	AIXperience	TimeNextQaire1OK	Female	Age	Education	HHIncome	TimeNextQaire2OK	Reliable	AIUsageInStudy	TimeNextQaire3OK	AIWasUsed4	TimeNextQaire3aOK	Manx	TimeNextQaire4FALSEOK	RandomPeriod	RelevantPayoff	Feedback	TimeProceedTHANKYOUOK	TotalSecondsInExperiment
260206_1528	155	subjects	1	1	77	0	1	0	0	1	0	0	1	0	"5bfc2227f88f3900014b0e1d"	5	1	2	-1	51.68516873889876	-0.005780346820809246	-1	-1	0	99999	99999	0	99999	99999	0	1	0	99999	0	99999	99999	99999	205	10	3	1	99999	0	99999	1	-99	-99	-99	0	0	0	0	-99	9	0	2	0	8	99999	99999	-99	6	99999	99999	99999	99999	1	2	1	0	99999	0	99999	1	-99	-99	-99	-99	0	0	0	99999	9	1	0	-99	18	-99	1	0	0	0	0	1	1	0	0	0	0	0	0	0	0	0	6	8	5	2	7	3	4	1	5	6	8	7	3	2	8	6	1	-99	99999	99999	1	99999	5	1	7	99999	0	1	0	0	0	1	0	0	1	1	0	""	99999	6	4	4	10	99999	1	29	4	75	99999	1	0	99999	""	0	""	0	7	890	""	99999	0
SessionID	TreatmentNumber	Table	Period	Subject	ClientNumber	LastClientNumber	Group	Profit	TotalProfit	Participate	LeaveStage
260206_1528	156	subjects	1	1	78	0	1	0	0	1	0
SessionID	TreatmentNumber	Table	Period	Subject	ClientNumber	LastClientNumber	Group	Profit	TotalProfit	Participate	LeaveStage	EVAlgorithm	PrefAlgorithm	AlgorithmChoice	ProlificID	Captcha5	Consent	BotCheck2	BotCheck1	BotCheck1x	BotCheck1y	Delegate	Option	StartTimeOfExperiment	TimeOKWelcomeOK	TimeOKCaptcha1OK	TimeOKOutOK	TimeContinueOverview1OK	TimeConfirmOverview2OK	TimeOKOut2OK	BotCheck1attempt	BotWarning	TimeOKBotCheck2OK	TimeOKOut3OK	TimeContinueInstructionsPart1aOK	TimeContinueInstructionsPart1bOK	TimeContinueInstructionsPart1cOK	CompQ205	CompQ10	CompQ3	auxPage	TimeNextComprehensionQsOK	TimeBackComprehensionQsOK	TimeContinueComprehensionQsOK	Part1CQsPassedOnAttempt	CompQ3a	CompQ205a	CompQ10a	TimeOKComprehensionQsReplayOK	TimeNextComprehensionQsReplayOK	TimeBackComprehensionQsReplayOK	Screen	Warning	i	OptionsetID	OrderNumber	Up	Confident	TimeOKPart1OK	TimeNextPart1OK	ConfidentPart1	SatisfiedPart1	TimeOKInstructionsPart2aOK	TimeContinueInstructionsPart2bOK	TimeContinueInstructionsPart2cOK	TimeContinueInstructionsPart2dOK	CompQ1	CompQ2	CompQ1b	CompQ0	TimeNextComprehensionQsP2OK	TimeBackComprehensionQsP2OK	TimeContinueComprehensionQsP2OK	Part2CQsPassedOnAttempt	CompQ1a	CompQ2a	CompQ1ba	CompQ0a	TimeNextComprehensionQsP2ReplayOK	TimeBackComprehensionQsP2ReplayOK	TimeContinueComprehensionQsP2ReplayOK	TimeContinueIntroPart2OK	NthDecision	TimedOutDelegationChoice	TimedOutOptionChoice	SatisfactionRating	l	aux_switch1	DelegateA[1]	DelegateA[2]	DelegateA[3]	DelegateA[4]	DelegateA[5]	DelegateA[6]	DelegateA[7]	DelegateA[8]	TimedOutOptionChoiceA[1]	TimedOutOptionChoiceA[2]	TimedOutOptionChoiceA[3]	TimedOutOptionChoiceA[4]	TimedOutOptionChoiceA[5]	TimedOutOptionChoiceA[6]	TimedOutOptionChoiceA[7]	TimedOutOptionChoiceA[8]	OptionsetIDA[1]	OptionsetIDA[2]	OptionsetIDA[3]	OptionsetIDA[4]	OptionsetIDA[5]	OptionsetIDA[6]	OptionsetIDA[7]	OptionsetIDA[8]	OptionA[1]	OptionA[2]	OptionA[3]	OptionA[4]	OptionA[5]	OptionA[6]	OptionA[7]	OptionA[8]	TimedOutOptionChocie	auxSwitch	TimeContinuePart2OK	TimeOKPart2OK	DelegateHyp10	TimeNextHypothetic10OK	ProbOfBadComputerChoices	ProbOfAbsurdComputerChoices	ComputerRiskTaking	TimeNextReasonsForHypDelegationChoiceOK	DontTrust	BetterJob	HowExactly	MoreInfo	Responsibility4Choice	Responsibility4Outcome	DislikeRelyingOn	Reactance2Analysis	PerformanceCuriosity	Tedious	Other	OtherText	TimeNextReasonsForHypDelegationChoice2OK	RiskTaking	FinMarketExperience	FinanciallyResponsible	AIXperience	TimeNextQaire1OK	Female	Age	Education	HHIncome	TimeNextQaire2OK	Reliable	AIUsageInStudy	TimeNextQaire3OK	AIWasUsed4	TimeNextQaire3aOK	Manx	TimeNextQaire4FALSEOK	RandomPeriod	RelevantPayoff	Feedback	TimeProceedTHANKYOUOK	TotalSecondsInExperiment
