SessionID,TreatmentNumber,Table,Period,Subject,ClientNumber,LastClientNumber,Group,Profit,TotalProfit,Participate,LeaveStage,EVAlgorithm,PrefAlgorithm,AlgorithmChoice,ProlificID,Captcha5,Consent,BotCheck2,BotCheck1,BotCheck1x,BotCheck1y,Delegate,Option,StartTimeOfExperiment,TimeOKWelcomeOK,TimeOKCaptcha1OK,TimeOKOutOK,TimeContinueOverview1OK,TimeConfirmOverview2OK,TimeOKOut2OK,BotCheck1attempt,BotWarning,TimeOKBotCheck2OK,TimeOKOut3OK,TimeContinueInstructionsPart1aOK,TimeContinueInstructionsPart1bOK,TimeContinueInstructionsPart1cOK,CompQ205,CompQ10,CompQ3,auxPage,TimeNextComprehensionQsOK,TimeBackComprehensionQsOK,TimeContinueComprehensionQsOK,Part1CQsPassedOnAttempt,CompQ3a,CompQ205a,CompQ10a,TimeOKComprehensionQsReplayOK,TimeNextComprehensionQsReplayOK,TimeBackComprehensionQsReplayOK,Screen,Warning,i,OptionsetID,OrderNumber,Up,Confident,TimeOKPart1OK,TimeNextPart1OK,ConfidentPart1,SatisfiedPart1,TimeOKInstructionsPart2aOK,TimeContinueInstructionsPart2bOK,TimeContinueInstructionsPart2cOK,TimeContinueInstructionsPart2dOK,CompQ1,CompQ2,CompQ1b,CompQ0,TimeNextComprehensionQsP2OK,TimeBackComprehensionQsP2OK,TimeContinueComprehensionQsP2OK,Part2CQsPassedOnAttempt,CompQ1a,CompQ2a,CompQ1ba,CompQ0a,TimeNextComprehensionQsP2ReplayOK,TimeBackComprehensionQsP2ReplayOK,TimeContinueComprehensionQsP2ReplayOK,TimeContinueIntroPart2OK,NthDecision,TimedOutDelegationChoice,TimedOutOptionChoice,SatisfactionRating,l,aux_switch1,DelegateA[1],DelegateA[2],DelegateA[3],DelegateA[4],DelegateA[5],DelegateA[6],DelegateA[7],DelegateA[8],TimedOutOptionChoiceA[1],TimedOutOptionChoiceA[2],TimedOutOptionChoiceA[3],TimedOutOptionChoiceA[4],TimedOutOptionChoiceA[5],TimedOutOptionChoiceA[6],TimedOutOptionChoiceA[7],TimedOutOptionChoiceA[8],OptionsetIDA[1],OptionsetIDA[2],OptionsetIDA[3],OptionsetIDA[4],OptionsetIDA[5],OptionsetIDA[6],OptionsetIDA[7],OptionsetIDA[8],OptionA[1],OptionA[2],OptionA[3],OptionA[4],OptionA[5],OptionA[6],OptionA[7],OptionA[8],TimedOutOptionChocie,auxSwitch,TimeContinuePart2OK,TimeOKPart2OK,DelegateHyp10,TimeNextHypothetic10OK,ProbOfBadComputerChoices,ProbOfAbsurdComputerChoices,ComputerRiskTaking,TimeNextReasonsForHypDelegationChoiceOK,DontTrust,BetterJob,HowExactly,MoreInfo,Responsibility4Choice,Responsibility4Outcome,DislikeRelyingOn,Reactance2Analysis,PerformanceCuriosity,Tedious,Other,OtherText,TimeNextReasonsForHypDelegationChoice2OK,RiskTaking,FinMarketExperience,FinanciallyResponsible,AIXperience,TimeNextQaire1OK,Female,Age,Education,HHIncome,TimeNextQaire2OK,Reliable,AIUsageInStudy,TimeNextQaire3OK,AIWasUsed4,TimeNextQaire3aOK,Manx,TimeNextQaire4FALSEOK,RandomPeriod,RelevantPayoff,Feedback,TimeProceedTHANKYOUOK,TotalSecondsInExperiment
260206_1528,3,subjects,1,1,1,0,1,0,0,1,0,1,0,0,62b4403257f7d42730f83394,5,1,2,-1,48.3199339207048,0.00549450549450548,-1,-1,0,99999,99999,0,99999,99999,0,1,0,99999,0,99999,99999,99999,205,10,3,1,99999,99999,99999,1,-99,-99,-99,0,0,0,0,-99,9,0,2,1,10,99999,99999,-99,8,99999,99999,99999,99999,1,2,1,0,99999,0,99999,1,-99,-99,-99,-99,0,0,0,99999,9,1,0,-99,18,-99,0,0,0,1,0,0,0,0,0,0,0,0,0,0,0,0,3,8,1,4,6,7,2,5,3,6,6,8,5,4,7,8,1,-99,99999,99999,0,99999,8,6,9,99999,1,1,0,0,1,0,0,0,0,0,1,"I analytically quickly analysed and trusted my own judgement, and the more risk averse likely scenarios.",99999,2,10,2,9,99999,0,41,4,55,99999,7,0,99999,,0,,0,4,0,Interesting experiment. I enjoyed the psychological decision making. ,99999,0
260206_1528,5,subjects,1,1,2,0,1,0,0,1,0,1,0,0,66acd6fce13998efa02007a6,5,1,2,-1,50.7701480263158,-0.0377038043478261,-1,-1,0,99999,99999,0,99999,99999,0,1,0,99999,0,99999,99999,99999,205,10,2,1,99999,0,99999,2,3,205,10,99999,99999,0,0,-99,9,0,2,1,7,99999,99999,-99,9,99999,99999,99999,99999,1,2,1,0,99999,0,99999,1,-99,-99,-99,-99,0,0,0,99999,9,1,0,-99,18,-99,0,1,0,1,0,1,1,1,1,0,1,0,1,0,0,0,7,2,8,5,4,3,6,1,2,5,8,8,5,2,5,3,1,0,99999,99999,1,99999,4,0,7,99999,0,0,0,0,0,0,0,0,0,0,1,I felt that with the limited time to make decisions the computer is better suited to calculate the best option to select. ,99999,9,8,10,5,99999,0,23,4,45,99999,7,0,99999,,0,,0,1,525,,99999,0
260206_1528,7,subjects,1,1,3,0,1,0,0,1,0,1,0,0,66eb295e917ab5b37e00f625,5,1,2,-1,50.6380072840791,-0.0167597765363128,-1,-1,0,99999,99999,0,99999,99999,0,1,0,99999,0,99999,99999,99999,205,10,3,2,99999,0,99999,1,-99,-99,-99,0,0,0,0,-99,9,0,1,1,4,99999,99999,-99,8,99999,99999,99999,99999,1,1,8,0,99999,0,99999,0,1,2,8,0,99999,0,99999,99999,9,1,0,-99,18,-99,1,0,0,0,0,0,0,0,0,0,0,0,0,0,0,0,3,6,5,4,1,8,2,7,2,5,5,6,6,6,7,1,1,-99,99999,99999,0,99999,8,4,9,99999,1,1,0,1,0,0,0,0,0,0,0,,99999,1,1,6,5,99999,0,56,2,55,99999,7,0,99999,,0,,0,7,255,,99999,0
260206_1528,9,subjects,1,1,4,0,1,0,0,1,0,0,1,0,56ab6fd869b24700065cbdbd,5,1,2,-1,52.443281938326,0.00549450549450548,-1,-1,0,99999,99999,0,99999,99999,0,1,0,99999,0,99999,99999,99999,205,10,3,1,99999,0,99999,1,-99,-99,-99,0,0,0,0,-99,9,0,1,1,7,99999,99999,-99,8,99999,99999,99999,99999,1,2,1,0,99999,0,99999,1,-99,-99,-99,-99,0,0,0,99999,9,1,0,-99,18,-99,0,1,0,1,0,0,1,1,0,0,0,0,0,0,0,0,7,8,3,6,5,1,2,4,4,4,6,5,8,6,7,4,1,-99,99999,99999,1,99999,3,0,4,99999,0,0,0,0,0,0,0,0,0,0,1,not enough time given to fully anaylse data myself,99999,2,1,3,3,99999,0,57,2,15,99999,7,0,99999,,0,,0,2,390,,99999,0
260206_1528,11,subjects,1,1,5,0,1,0,0,1,0,0,1,0,5ebd31a3dc638f1875840598,5,1,2,-1,48.9898292625343,-0.010207908740942,-1,-1,0,99999,99999,0,99999,99999,0,1,0,99999,0,99999,99999,99999,205,10,3,2,99999,0,99999,1,-99,-99,-99,0,0,0,0,-99,9,0,2,1,7,99999,99999,-99,10,99999,99999,99999,99999,1,0,1,0,99999,0,99999,0,-99,-99,1,0,99999,0,99999,99999,9,1,0,-99,18,-99,0,1,0,0,0,0,0,0,1,0,0,0,0,0,0,0,8,4,6,1,5,2,7,3,2,8,6,4,7,4,1,5,1,-99,99999,99999,0,99999,1,2,10,99999,0,0,0,1,1,0,0,0,1,0,0,,99999,6,0,5,10,99999,1,27,3,5,99999,7,0,99999,,0,,0,5,0,no,99999,0
260206_1528,13,subjects,1,1,6,0,1,0,0,1,0,0,1,0,6310a5c786d2abda637997c0,5,1,2,-1,51.6739480379579,-0.0100355709300322,-1,-1,0,99999,99999,0,99999,99999,0,1,0,99999,0,99999,99999,99999,205,10,3,1,99999,0,99999,1,-99,-99,-99,0,0,0,0,-99,9,0,2,0,6,99999,99999,-99,5,99999,99999,99999,99999,1,2,1,0,99999,0,99999,1,-99,-99,-99,-99,0,0,0,99999,9,1,0,-99,18,-99,0,1,0,1,0,0,0,0,0,0,0,0,0,0,0,0,2,6,8,3,1,5,7,4,4,5,6,2,4,5,6,5,1,-99,99999,99999,0,99999,6,1,4,99999,0,1,0,0,1,0,0,0,1,0,0,,99999,6,6,10,9,99999,0,44,4,15,99999,7,0,99999,,0,,0,5,225,,99999,0
260206_1528,15,subjects,1,1,7,0,1,0,0,1,0,1,0,0,612f350052a72eaeac5b9703,5,1,2,-1,52.9424504950495,-0.0273972602739726,-1,-1,0,99999,99999,0,99999,99999,0,1,0,99999,0,99999,99999,99999,205,10,3,2,99999,0,99999,1,-99,-99,-99,0,0,0,0,-99,9,0,1,1,3,99999,99999,-99,7,99999,99999,99999,99999,0,1,8,0,99999,0,99999,0,1,2,8,0,99999,0,99999,99999,9,1,0,-99,18,-99,0,0,1,0,0,0,0,1,0,1,0,0,0,0,0,0,4,1,5,2,3,7,6,8,5,3,8,1,6,4,5,4,1,-99,99999,99999,0,99999,4,0,5,99999,0,1,0,0,1,0,0,0,0,0,0,,99999,1,1,10,5,99999,1,70,3,35,99999,7,0,99999,,0,,0,2,525,Fun study,99999,0
260206_1528,17,subjects,1,1,8,0,1,0,0,1,0,0,1,0,5f0dca1b95f13600097e1317,5,1,2,-1,48.8614317428234,-0.0103092783505155,-1,-1,0,99999,99999,0,99999,99999,0,1,0,99999,0,99999,99999,99999,205,10,3,1,99999,0,99999,1,-99,-99,-99,0,0,0,0,-99,9,0,1,1,5,99999,99999,-99,7,99999,99999,99999,99999,1,2,1,0,99999,0,99999,1,-99,-99,-99,-99,0,0,0,99999,9,1,0,-99,18,-99,0,1,0,1,0,0,1,1,0,0,0,0,0,0,0,0,6,5,7,3,2,1,8,4,5,8,6,2,7,6,4,8,1,-99,99999,99999,0,99999,5,1,1,99999,1,1,0,1,0,0,0,0,0,0,0,,99999,7,9,10,8,99999,0,48,3,65,99999,7,0,99999,,0,,0,6,225,,99999,0
260206_1528,19,subjects,1,1,9,0,1,0,0,1,0,0,1,0,5ef91b4a9d934269f7a2d09a,5,1,2,-1,51.8728956228956,-0.0136269623378538,-1,-1,0,99999,99999,0,99999,99999,0,1,0,99999,0,99999,99999,99999,205,10,3,2,99999,99999,99999,1,-99,-99,-99,0,0,0,0,-99,9,0,1,0,4,99999,99999,-99,7,99999,99999,99999,99999,1,1,1,0,99999,0,99999,0,1,0,8,5,99999,0,99999,99999,9,1,0,-99,18,-99,0,1,0,0,1,0,0,0,0,0,0,0,0,0,0,0,8,2,6,7,1,5,3,4,1,7,1,4,6,5,4,1,1,-99,99999,99999,0,99999,4,3,5,99999,0,1,0,0,0,0,0,0,0,0,0,,99999,8,3,2,7,99999,0,45,4,85,99999,7,0,99999,,0,,0,8,0,n/a,99999,0
260206_1528,21,subjects,1,1,10,0,1,0,0,1,0,1,0,0,670be097fae6e39ea154f7df,5,1,2,-1,51.239977543897,-0.019719970703125,-1,-1,0,99999,99999,0,99999,99999,0,1,0,99999,0,99999,99999,99999,205,10,3,2,99999,0,99999,1,-99,-99,-99,0,0,0,0,-99,9,0,2,0,9,99999,99999,-99,8,99999,99999,99999,99999,1,1,8,0,99999,0,99999,0,1,2,8,0,99999,0,99999,99999,9,1,0,-99,18,-99,1,0,0,0,1,0,0,0,0,0,1,0,0,0,0,0,2,4,3,6,7,1,8,5,5,2,6,5,4,5,1,8,1,-99,99999,99999,0,99999,2,1,3,99999,0,0,0,0,1,0,0,0,0,0,0,,99999,7,7,9,2,99999,1,41,5,55,99999,7,0,99999,,0,,0,8,235,,99999,0
260206_1528,23,subjects,1,1,11,0,1,0,0,1,0,1,0,0,5c7ccbfe371d1d0015bcabc0,5,1,2,-1,50.7157324990736,-0.0169207336037022,-1,-1,0,99999,99999,0,99999,99999,0,1,0,99999,0,99999,99999,99999,205,10,3,1,99999,0,99999,1,-99,-99,-99,0,0,0,0,-99,9,0,2,1,7,99999,99999,-99,8,99999,99999,99999,99999,1,2,1,0,99999,0,99999,1,-99,-99,-99,-99,0,0,0,99999,9,1,0,-99,18,-99,1,1,0,0,0,0,0,0,0,0,0,0,0,0,0,0,8,4,6,5,3,7,2,1,4,8,6,8,7,4,4,6,1,-99,99999,99999,0,99999,5,2,7,99999,1,1,0,0,1,0,1,0,0,0,0,,99999,4,0,5,2,99999,1,37,4,35,99999,7,0,99999,,0,,0,7,205,,99999,0
260206_1528,25,subjects,1,1,12,0,1,0,0,1,0,0,1,0,622bb4f79c52ad04bb91e752,5,1,2,-1,50.1491404103709,-0.0151082356770834,-1,-1,0,99999,99999,0,99999,99999,0,1,0,99999,0,99999,99999,99999,205,10,3,1,99999,0,99999,1,-99,-99,-99,0,0,0,0,-99,9,0,1,1,6,99999,99999,-99,6,99999,99999,99999,99999,1,2,1,0,99999,0,99999,1,-99,-99,-99,-99,0,0,0,99999,9,1,0,-99,18,-99,0,0,0,1,0,0,1,0,0,0,0,0,0,0,0,0,2,1,6,7,8,3,4,5,7,5,6,4,6,7,8,8,1,-99,99999,99999,0,99999,8,1,5,99999,0,1,0,1,1,0,0,0,1,0,0,,99999,1,0,5,6,99999,1,60,1,25,99999,6,0,99999,,0,,0,4,220,,99999,0
260206_1528,27,subjects,1,1,13,0,1,0,0,1,0,0,1,0,6765b501bf830acd8f0e20ba,5,1,2,-1,50.6315789473684,0.011049723756906,-1,-1,0,99999,99999,0,99999,99999,0,1,0,99999,0,99999,99999,99999,205,10,3,2,99999,0,99999,1,-99,-99,-99,0,0,0,0,-99,9,0,2,1,9,99999,99999,-99,10,99999,99999,99999,99999,1,1,8,0,99999,0,99999,0,1,2,8,0,99999,0,99999,99999,9,1,0,-99,18,-99,1,0,1,0,1,1,0,1,0,1,0,1,0,0,1,0,4,3,8,1,5,2,6,7,4,7,4,5,8,7,5,4,1,0,99999,99999,1,99999,2,0,5,99999,0,0,0,0,0,0,0,0,0,0,1,I would need more time to view all the options available,99999,2,0,5,8,99999,1,44,3,65,99999,7,0,99999,,0,,0,3,0,,99999,0
260206_1528,29,subjects,1,1,14,0,1,0,0,1,0,0,1,0,5e469f9ef0d398000b1f13f2,5,1,2,-1,52.4968062194062,-0.00811932538006754,-1,-1,0,99999,99999,0,99999,99999,0,1,0,99999,0,99999,99999,99999,205,10,3,1,99999,0,99999,1,-99,-99,-99,0,0,0,0,-99,9,0,2,0,9,99999,99999,-99,10,99999,99999,99999,99999,1,2,1,0,99999,0,99999,1,-99,-99,-99,-99,0,0,0,99999,9,1,0,-99,18,-99,0,1,0,0,0,0,0,0,0,0,0,0,0,0,0,0,2,5,6,7,3,4,1,8,4,8,5,7,2,-1,8,2,1,-99,99999,99999,0,99999,5,1,5,99999,0,0,0,0,1,0,0,0,0,0,1,"It is just more interesting and gives me something to do in the task. There didn't appear to be much in the way of massive outliers in the payoffs tough some were clearly superior options to others. The most annoying thing is the way you designed the experiment, I obviously misclicked on one of the better options (4 x800+ payoffs) and I pressed OK without ha",99999,1,1,1,9,99999,0,55,4,15,99999,7,0,99999,,0,,0,6,-99,"I provided feedback in the 'Other' section but run out of space while having a lot more to enter - I assume this box has the same issue. I misclicked on one of my options and rather than just giving be a default option it said the payoff was zero for that option (I would have picked the 4x 800+ payof option as that was probably the best payoff in the whole set. It seems odd to not let me go back and fix the minor misclick error I made. being under time pressure, that kind of mistake probably isn't that rare.",99999,0
260206_1528,31,subjects,1,1,15,0,1,0,0,1,0,1,0,0,5c12d53683c3cb0001172e89,5,1,2,-1,52.4121356100861,0.0151079575792491,-1,-1,0,99999,99999,0,99999,99999,0,1,0,99999,0,99999,99999,99999,205,10,2,2,99999,99999,99999,-99,1,205,10,99999,99999,0,0,-99,9,0,1,1,7,99999,99999,-99,8,99999,99999,99999,99999,1,1,1,0,99999,0,99999,2,1,2,1,0,99999,0,99999,99999,9,1,0,-99,18,-99,1,1,0,1,0,1,1,0,0,0,0,0,0,0,0,0,7,6,4,2,3,8,1,5,4,5,4,5,6,4,3,1,1,-99,99999,99999,1,99999,4,2,7,99999,0,1,0,0,0,0,0,0,1,0,0,it was a lot of info to absorb in the time available!,99999,4,1,2,10,99999,0,69,4,95,99999,7,0,99999,,0,,0,2,265,it was the SPEED that got me - I was trying to analyse in my head,99999,0
260206_1528,33,subjects,1,1,16,0,1,0,0,1,0,1,0,0,66cb2e0bd2169db778550269,5,1,2,-1,53.1018550812252,0.0462184873949579,-1,-1,0,99999,99999,0,99999,99999,0,1,0,99999,0,99999,99999,99999,205,10,3,4,99999,0,99999,1,-99,-99,-99,0,0,0,0,-99,9,0,2,0,8,99999,99999,-99,8,99999,99999,99999,99999,1,1,1,0,99999,0,99999,2,1,2,1,0,99999,99999,99999,99999,9,1,0,-99,18,-99,0,0,1,0,0,0,0,0,0,0,0,0,0,0,0,0,8,4,2,1,5,3,6,7,8,8,5,3,1,2,2,4,1,-99,99999,99999,0,99999,3,2,2,99999,1,0,0,0,0,0,0,0,0,0,0,,99999,5,7,10,8,99999,0,25,4,105,99999,7,0,99999,,0,,0,1,0,N/A,99999,0
260206_1528,35,subjects,1,1,17,0,1,0,0,1,0,0,1,0,6744d143eddffd17d345b192,5,1,2,-1,50.7516519823789,0.00549450549450548,-1,-1,0,99999,99999,0,99999,99999,0,1,0,99999,0,99999,99999,99999,205,10,1,2,99999,99999,99999,2,3,205,10,99999,99999,0,0,-99,9,0,1,0,7,99999,99999,-99,7,99999,99999,99999,99999,0,2,1,0,99999,0,99999,0,1,1,1,0,99999,0,99999,99999,9,1,0,-99,18,-99,1,1,1,1,1,1,1,1,0,0,0,0,0,0,0,0,5,4,8,6,2,3,1,7,8,4,4,5,7,7,6,4,1,0,99999,99999,1,99999,2,1,1,99999,0,1,0,0,0,0,0,0,1,0,0,,99999,4,6,6,5,99999,0,25,4,55,99999,7,0,99999,,0,,0,1,235,"None at all, thank you so much for your time :)",99999,0
260206_1528,37,subjects,1,1,18,0,1,0,0,1,0,1,0,0,559b8c79fdf99b5ae13fd3d1,5,1,2,-1,50.517580807864,-0.0130438320878623,-1,-1,0,99999,99999,0,99999,99999,0,1,0,99999,0,99999,99999,99999,205,10,3,2,99999,0,99999,1,-99,-99,-99,0,0,0,0,-99,9,0,2,1,7,99999,99999,-99,8,99999,99999,99999,99999,1,1,1,0,99999,0,99999,0,1,1,1,5,99999,0,99999,99999,9,1,0,-99,18,-99,1,1,1,1,1,1,1,1,0,0,0,0,0,0,0,0,7,8,2,1,5,4,6,3,4,4,5,3,8,8,5,2,1,0,99999,99999,1,99999,4,0,8,99999,0,0,0,0,0,0,0,0,0,0,1,I would have had to make the decision too quickly,99999,0,1,9,7,99999,1,57,1,55,99999,7,0,99999,,0,,0,4,525,,99999,0
260206_1528,39,subjects,1,1,19,0,1,0,0,1,0,1,0,0,66a3e355362c7697f4d44d46,5,1,2,-1,52.6454207920792,0.00684931506849318,-1,-1,0,99999,99999,0,99999,99999,0,1,0,99999,0,99999,99999,99999,205,10,3,1,99999,0,99999,1,-99,-99,-99,0,0,0,0,-99,9,0,1,0,8,99999,99999,-99,9,99999,99999,99999,99999,1,2,1,0,99999,0,99999,1,-99,-99,-99,-99,0,0,0,99999,9,1,0,-99,18,-99,1,0,0,1,0,1,0,0,0,0,0,0,0,0,1,0,6,1,5,4,7,8,3,2,5,4,8,8,6,4,5,7,1,-99,99999,99999,0,99999,4,3,3,99999,1,0,1,1,1,0,0,0,1,0,0,,99999,1,0,10,1,99999,1,58,3,15,99999,7,0,99999,,0,,0,2,205,no. it was very interesting,99999,0
260206_1528,41,subjects,1,1,20,0,1,0,0,1,0,1,0,0,611218c29a454f84484df681,5,1,2,-1,53.5251290457589,-0.012,-1,-1,0,99999,99999,0,99999,99999,0,1,0,99999,0,99999,99999,99999,205,10,4,1,99999,0,99999,2,3,205,10,99999,99999,0,0,-99,9,0,2,0,3,99999,99999,-99,2,99999,99999,99999,99999,1,2,1,0,99999,0,99999,1,-99,-99,-99,-99,0,0,0,99999,9,1,0,-99,18,-99,1,1,0,1,0,1,0,1,0,0,0,0,0,0,0,0,1,8,3,7,5,6,2,4,3,4,8,4,5,5,5,8,1,-99,99999,99999,1,99999,5,0,1,99999,0,1,0,0,0,0,0,0,1,0,0,,99999,2,3,5,7,99999,0,35,4,95,99999,7,0,99999,,0,,0,1,525,,99999,0
260206_1528,43,subjects,1,1,21,0,1,0,0,1,0,0,1,0,6978d4afc2649c9396f7266c,5,1,2,-1,49.5155793913118,0.0193435005519701,-1,-1,0,99999,99999,0,99999,99999,0,1,0,99999,0,99999,99999,99999,205,10,3,1,99999,0,99999,1,-99,-99,-99,0,0,0,0,-99,9,0,1,0,9,99999,99999,-99,9,99999,99999,99999,99999,1,2,1,0,99999,0,99999,1,-99,-99,-99,-99,0,0,0,99999,9,1,0,-99,18,-99,0,0,1,0,0,0,0,0,0,0,0,0,0,0,0,0,6,3,4,5,8,2,1,7,2,7,4,8,4,4,4,1,1,-99,99999,99999,0,99999,3,1,4,99999,1,1,0,0,1,0,1,0,0,0,0,,99999,8,7,9,6,99999,1,33,4,75,99999,7,0,99999,,0,,0,4,0,,99999,0
260206_1528,45,subjects,1,1,22,0,1,0,0,1,0,0,1,0,5ae9cde00335e200019e9eed,5,1,2,-1,51.7835197029533,-0.00933329264322918,-1,-1,0,99999,99999,0,99999,99999,0,1,0,99999,0,99999,99999,99999,205,10,3,2,99999,0,99999,1,-99,-99,-99,0,0,0,0,-99,9,0,2,1,2,99999,99999,-99,8,99999,99999,99999,99999,1,1,1,0,99999,0,99999,0,1,0,1,0,99999,0,99999,99999,9,1,0,-99,18,-99,1,1,1,1,1,1,1,1,0,0,0,0,0,0,0,0,6,3,7,2,1,5,8,4,5,7,4,7,6,8,4,4,1,0,99999,99999,1,99999,0,1,1,99999,0,1,0,0,0,0,0,0,0,0,0,,99999,2,0,10,1,99999,1,29,4,15,99999,7,0,99999,,0,,0,6,0,no,99999,0
260206_1528,47,subjects,1,1,23,0,1,0,0,1,0,0,1,0,62b055a21e169809861b173d,5,1,2,-1,51.467032967033,0.00228998315243323,-1,-1,0,99999,99999,0,99999,99999,0,1,0,99999,0,99999,99999,99999,205,10,3,2,99999,0,99999,1,-99,-99,-99,0,0,0,0,-99,9,0,1,1,9,99999,99999,-99,8,99999,99999,99999,99999,1,2,8,0,99999,0,99999,2,1,2,1,0,99999,0,99999,99999,9,1,0,-99,18,-99,0,1,0,0,1,0,0,1,0,0,0,0,0,0,1,0,7,2,8,5,3,4,6,1,3,5,1,4,2,6,5,6,1,-99,99999,99999,0,99999,7,2,6,99999,0,1,1,0,1,0,0,0,1,0,0,,99999,2,1,0,6,99999,0,34,4,85,99999,7,0,99999,,0,,0,5,625,,99999,0
260206_1528,49,subjects,1,1,24,0,1,0,0,1,0,0,1,0,65df4b49282bf70bba6798c7,5,1,2,-1,49.5681286486951,0.0144927536231884,-1,-1,0,99999,99999,0,99999,99999,0,1,0,99999,0,99999,99999,99999,205,10,1,1,99999,0,99999,2,3,205,10,99999,99999,0,0,-99,9,0,2,1,4,99999,99999,-99,8,99999,99999,99999,99999,1,2,1,0,99999,0,99999,1,-99,-99,-99,-99,0,0,0,99999,9,1,0,-99,18,-99,0,0,0,0,0,0,0,1,0,0,0,0,0,0,0,0,2,7,4,5,6,8,1,3,7,6,8,5,2,4,1,2,1,-99,99999,99999,0,99999,4,2,1,99999,1,1,0,0,1,0,1,0,1,0,0,,99999,3,2,10,0,99999,1,66,4,35,99999,7,0,99999,,0,,0,6,0,,99999,0
260206_1528,53,subjects,1,1,26,0,1,0,0,1,0,1,0,0,666445e5b72745f04a4f57d6,5,1,2,-1,50.7965178536897,-0.00500530086151541,-1,-1,0,99999,99999,0,99999,99999,0,1,0,99999,0,99999,99999,99999,205,10,3,1,99999,0,99999,1,-99,-99,-99,0,0,0,0,-99,9,0,1,0,8,99999,99999,-99,7,99999,99999,99999,99999,1,2,1,0,99999,0,99999,1,-99,-99,-99,-99,0,0,0,99999,9,1,0,-99,18,-99,0,1,0,0,0,0,1,1,0,0,0,0,0,0,0,0,1,8,5,7,6,4,3,2,4,4,2,2,1,3,2,5,1,-99,99999,99999,0,99999,3,1,8,99999,0,1,0,0,1,0,0,0,1,0,0,,99999,5,7,8,6,99999,0,53,2,65,99999,7,0,99999,,0,,0,3,205,,99999,0
260206_1528,55,subjects,1,1,27,0,1,0,0,1,0,0,1,0,5d48c3371bf808001c396355,5,1,2,-1,50.5263157894737,-0.0220994475138122,-1,-1,0,99999,99999,0,99999,99999,0,1,0,99999,0,99999,99999,99999,205,10,3,1,99999,0,99999,1,-99,-99,-99,0,0,0,0,-99,9,0,1,0,9,99999,99999,-99,6,99999,99999,99999,99999,1,2,1,0,99999,0,99999,1,-99,-99,-99,-99,0,0,0,99999,9,1,0,-99,18,-99,1,0,0,0,1,1,1,0,0,1,1,1,0,0,0,0,2,6,8,1,3,5,7,4,7,2,3,8,2,8,4,8,1,-99,99999,99999,1,99999,3,1,3,99999,0,1,0,0,1,1,0,0,1,1,0,,99999,6,2,1,2,99999,0,26,1,45,99999,7,0,99999,,0,,0,8,0,,99999,0
260206_1528,57,subjects,1,1,28,0,1,0,0,1,0,1,0,0,669b9cae8f4c91285f2219d7,5,1,2,-1,48.6186845381181,-0.00724637681159418,-1,-1,0,99999,99999,0,99999,99999,0,1,0,99999,0,99999,99999,99999,205,10,2,2,99999,0,99999,2,3,205,10,99999,99999,0,0,-99,9,0,2,0,4,99999,99999,-99,3,99999,99999,99999,99999,1,1,8,0,99999,0,99999,0,1,0,8,0,99999,0,99999,99999,9,1,0,-99,18,-99,1,1,0,1,0,1,0,1,0,0,0,0,0,0,0,0,5,3,7,8,1,2,4,6,8,2,5,4,5,5,7,5,1,-99,99999,99999,1,99999,5,0,2,99999,1,1,0,0,0,0,0,0,1,1,0,,99999,3,3,1,1,99999,1,68,5,55,99999,7,0,99999,,0,,0,7,0,,99999,0
260206_1528,59,subjects,1,1,29,0,1,0,0,1,0,1,0,0,5fb344483d8b23a8d2d106ca,5,1,2,-1,49.0486163566126,0.0028980642125227,-1,-1,0,99999,99999,0,99999,99999,0,1,0,99999,0,99999,99999,99999,205,5,3,2,99999,0,99999,2,3,205,10,99999,99999,0,0,-99,9,0,2,0,10,99999,99999,-99,9,99999,99999,99999,99999,1,1,1,0,99999,0,99999,2,1,2,1,0,99999,0,99999,99999,9,1,0,-99,18,-99,1,1,0,0,0,0,0,0,0,0,1,0,1,0,0,0,7,3,1,2,8,4,6,5,4,2,4,2,4,4,6,1,1,-99,99999,99999,0,99999,5,0,8,99999,0,1,0,1,0,0,0,0,0,0,1,I wanted to reduce variance my choosing options with fewest 0 outcomes. The computer's average method could end up choosing options with high payout if win but higher risk of getting 0.,99999,5,8,10,10,99999,0,31,2,35,99999,7,0,99999,,0,,0,4,235,None,99999,0
260206_1528,61,subjects,1,1,30,0,1,0,0,1,0,1,0,0,5d52b9b351ffbf00019fc578,5,1,2,-1,49.7791224888393,-0.00724637681159418,-1,-1,0,99999,99999,0,99999,99999,0,1,0,99999,0,99999,99999,99999,205,10,3,2,99999,0,99999,1,-99,-99,-99,0,0,0,0,-99,9,0,2,0,7,99999,99999,-99,7,99999,99999,99999,99999,1,1,1,0,99999,0,99999,2,1,2,1,0,99999,0,99999,99999,9,1,0,-99,18,-99,1,0,0,0,0,0,0,1,0,0,0,0,0,0,0,0,3,8,7,1,2,5,6,4,2,5,4,6,4,5,4,8,1,-99,99999,99999,0,99999,7,5,3,99999,1,1,1,1,1,0,0,0,1,0,0,,99999,1,0,3,1,99999,1,52,1,-1,99999,7,0,99999,,0,,0,8,0,No,99999,0
260206_1528,63,subjects,1,1,31,0,1,0,0,1,0,1,0,0,6304db4577830d43f42d4d26,5,1,2,-1,47.5918794014085,-0.0126262626262627,-1,-1,0,99999,99999,0,99999,99999,0,1,0,99999,0,99999,99999,99999,205,10,3,1,99999,0,99999,1,-99,-99,-99,0,0,0,0,-99,9,0,1,1,5,99999,99999,-99,7,99999,99999,99999,99999,1,2,1,0,99999,0,99999,1,-99,-99,-99,-99,0,0,0,99999,9,1,0,-99,18,-99,1,1,-1,1,1,1,1,1,0,0,0,0,0,0,0,0,5,1,6,3,4,2,8,7,8,3,-1,2,8,5,4,4,1,-99,99999,99999,1,99999,5,3,7,99999,0,1,0,0,1,1,0,0,1,0,0,,99999,8,1,3,8,99999,0,28,3,15,99999,7,0,99999,,0,,0,8,0,,99999,0
260206_1528,67,subjects,1,1,33,0,1,0,0,1,0,0,1,0,5ce65aa96ad4e50001097566,5,1,2,-1,51.6278138807725,0.0107477361505682,-1,-1,0,99999,99999,0,99999,99999,0,1,0,99999,0,99999,99999,99999,205,10,3,2,99999,0,99999,1,-99,-99,-99,0,0,0,0,-99,9,0,2,1,8,99999,99999,-99,9,99999,99999,99999,99999,1,2,8,0,99999,0,99999,0,1,1,1,0,99999,0,99999,99999,9,1,0,-99,18,-99,0,1,1,0,1,1,1,1,1,0,0,1,0,0,0,0,2,4,7,5,6,8,3,1,7,4,4,5,5,4,7,6,1,0,99999,99999,1,99999,5,1,8,99999,0,1,0,0,0,0,0,0,0,0,0,,99999,3,7,10,4,99999,0,56,4,15,99999,7,0,99999,,0,,0,8,225,,99999,0
260206_1528,69,subjects,1,1,34,0,1,0,0,1,0,1,0,0,5cdd4befd3651c001950e539,5,1,2,-1,49.8330973045619,0.0199275330035356,-1,-1,0,99999,99999,0,99999,99999,0,1,0,99999,0,99999,99999,99999,205,10,3,1,99999,0,99999,1,-99,-99,-99,0,0,0,0,-99,9,0,2,0,5,99999,99999,-99,10,99999,99999,99999,99999,1,2,1,0,99999,0,99999,1,-99,-99,-99,-99,0,0,0,99999,9,1,0,-99,18,-99,1,1,0,1,0,0,0,1,0,0,0,0,0,0,0,0,6,3,2,7,8,1,5,4,5,2,4,4,6,6,5,8,1,-99,99999,99999,0,99999,5,0,8,99999,0,0,0,0,1,0,0,0,0,0,0,,99999,2,0,5,1,99999,1,60,2,85,99999,7,0,99999,,0,,0,4,320,,99999,0
260206_1528,71,subjects,1,1,35,0,1,0,0,1,0,1,0,0,66929bbddece52b3d6569339,5,1,2,-1,50.9195402298851,-0.00526315789473686,-1,-1,0,99999,99999,0,99999,99999,0,1,0,99999,0,99999,99999,99999,205,10,4,2,99999,0,99999,2,3,205,10,99999,99999,0,0,-99,9,0,2,1,8,99999,99999,-99,8,99999,99999,99999,99999,1,1,1,0,99999,0,99999,0,1,0,1,0,99999,0,99999,99999,9,1,0,-99,18,-99,1,0,1,1,1,1,1,1,0,0,0,0,0,0,0,0,7,5,3,8,1,6,4,2,4,5,2,4,3,5,8,5,1,-99,99999,99999,1,99999,8,2,5,99999,0,1,0,0,0,1,0,0,0,0,0,,99999,7,2,10,5,99999,0,42,3,35,99999,7,0,99999,,0,,0,1,0,,99999,0
260206_1528,73,subjects,1,1,36,0,1,0,0,1,0,1,0,0,680e1b9a36b987121bbc9c9a,5,1,2,-1,50.4120879120879,-0.0251701510682398,-1,-1,0,99999,99999,0,99999,99999,0,1,0,99999,0,99999,99999,99999,205,10,3,1,99999,0,99999,1,-99,-99,-99,0,0,0,0,-99,9,0,1,0,8,99999,99999,-99,6,99999,99999,99999,99999,1,2,1,0,99999,0,99999,1,-99,-99,-99,-99,0,0,0,99999,9,1,0,-99,18,-99,1,1,1,0,0,0,1,0,0,0,0,0,0,0,0,0,7,1,4,5,2,3,6,8,4,3,8,1,7,3,5,6,1,-99,99999,99999,0,99999,7,1,10,99999,1,0,0,0,0,0,0,0,0,0,0,,99999,2,0,0,4,99999,1,51,4,65,99999,7,0,99999,,0,,0,4,235,,99999,0
260206_1528,75,subjects,1,1,37,0,1,0,0,1,0,0,1,0,5db8a8b7b41c4a000ea7afee,5,1,2,-1,51.5789473684211,-0.014367816091954,-1,-1,0,99999,99999,0,99999,99999,0,1,0,99999,0,99999,99999,99999,205,10,3,2,99999,0,99999,1,-99,-99,-99,0,0,0,0,-99,9,0,1,0,8,99999,99999,-99,8,99999,99999,99999,99999,1,2,8,0,99999,0,99999,2,1,2,1,0,99999,0,99999,99999,9,1,0,-99,18,-99,1,1,0,1,1,1,1,1,0,0,1,0,0,0,0,0,1,5,3,4,8,2,6,7,3,8,-1,8,4,7,5,4,1,0,99999,99999,1,99999,5,5,3,99999,0,0,0,0,1,0,0,0,0,0,0,,99999,1,4,8,0,99999,1,30,4,65,99999,6,0,99999,,0,,0,1,525,5 seconds not enough time to look at all the options to make a decision,99999,0
260206_1528,77,subjects,1,1,38,0,1,0,0,1,0,1,0,0,5f27f6a0e13d4e05d048335f,5,1,2,-1,52.8421052631579,0.0109289617486339,-1,-1,0,99999,99999,0,99999,99999,0,1,0,99999,0,99999,99999,99999,205,10,3,1,99999,0,99999,1,-99,-99,-99,0,0,0,0,-99,9,0,1,0,10,99999,99999,-99,8,99999,99999,99999,99999,1,2,1,0,99999,0,99999,1,-99,-99,-99,-99,0,0,0,99999,9,1,0,-99,18,-99,1,1,1,1,1,1,1,1,0,0,0,0,0,0,0,0,5,1,6,2,3,8,4,7,8,3,5,5,2,4,8,4,1,0,99999,99999,1,99999,0,0,1,99999,0,1,0,0,0,0,0,0,0,0,1,Not enough time to work out the best option myself.,99999,4,3,10,4,99999,0,54,4,45,99999,7,0,99999,,0,,0,2,0,None.,99999,0
260206_1528,79,subjects,1,1,39,0,1,0,0,1,0,1,0,0,594ea461c6a70f00010aaa8d,5,1,2,-1,54.4520925110132,-0.00282485875706212,-1,-1,0,99999,99999,0,99999,99999,0,1,0,99999,0,99999,99999,99999,205,10,3,1,99999,0,99999,1,-99,-99,-99,0,0,0,0,-99,9,0,1,0,8,99999,99999,-99,6,99999,99999,99999,99999,1,2,1,0,99999,0,99999,1,-99,-99,-99,-99,0,0,0,99999,9,1,0,-99,18,-99,1,0,0,1,1,1,1,1,0,0,0,0,0,0,0,0,8,5,1,6,4,3,7,2,4,5,5,5,8,2,4,5,1,-99,99999,99999,1,99999,6,1,2,99999,0,1,0,0,0,0,1,0,0,0,0,,99999,0,4,4,6,99999,1,57,4,85,99999,7,0,99999,,0,,0,6,625,,99999,0
260206_1528,81,subjects,1,1,40,0,1,0,0,1,0,0,1,0,64a9858be9b52e570ffb3c1e,5,1,2,-1,47.0526315789474,-0.0109289617486339,-1,-1,0,99999,99999,0,99999,99999,0,1,0,99999,0,99999,99999,99999,205,10,3,1,99999,0,99999,1,-99,-99,-99,0,0,0,0,-99,9,0,1,1,6,99999,99999,-99,9,99999,99999,99999,99999,1,2,1,0,99999,0,99999,1,-99,-99,-99,-99,0,0,0,99999,9,1,0,-99,18,-99,0,0,0,0,1,1,1,1,0,0,0,0,0,0,0,0,3,5,1,6,8,2,4,7,8,8,4,2,4,5,8,4,1,-99,99999,99999,1,99999,5,0,10,99999,0,1,0,0,0,0,0,0,1,0,0,,99999,9,1,5,10,99999,1,68,2,15,99999,7,0,99999,,0,,0,6,0,,99999,0
260206_1528,83,subjects,1,1,41,0,1,0,0,1,0,0,1,0,66b23e1a82f20f59115e2255,5,1,2,-1,52.2552877759177,0.00564988992981996,-1,-1,0,99999,99999,0,99999,99999,0,1,0,99999,0,99999,99999,99999,205,10,3,2,99999,0,99999,1,-99,-99,-99,0,0,0,0,-99,9,0,2,0,9,99999,99999,-99,9,99999,99999,99999,99999,1,2,8,0,99999,0,99999,0,1,1,1,0,99999,0,99999,99999,9,1,0,-99,18,-99,1,1,1,1,1,1,1,1,0,0,0,0,0,0,0,0,1,6,4,2,5,3,7,8,3,5,8,5,8,2,4,4,1,0,99999,99999,1,99999,0,0,3,99999,0,1,0,0,0,0,0,0,0,0,0,Not enough time to do it properly myself,99999,1,0,4,2,99999,0,60,6,-1,99999,6,0,99999,,0,,0,7,320,,99999,0
260206_1528,85,subjects,1,1,42,0,1,0,0,1,0,1,0,0,65fbec18b9660955d6a93adf,5,1,2,-1,52.7368421052632,-0.00268817204301075,-1,-1,0,99999,99999,0,99999,99999,0,1,0,99999,0,99999,99999,99999,205,10,3,2,99999,0,99999,1,-99,-99,-99,0,0,0,0,-99,9,0,1,1,7,99999,99999,-99,9,99999,99999,99999,99999,1,1,8,0,99999,0,99999,0,1,1,1,0,99999,0,99999,99999,9,1,0,-99,18,-99,0,0,1,0,0,0,0,0,1,0,0,0,0,0,0,0,2,8,4,5,1,6,7,3,4,2,8,5,6,5,5,2,1,-99,99999,99999,0,99999,5,3,1,99999,0,1,1,0,1,0,1,0,1,0,0,,99999,9,9,0,1,99999,0,29,3,85,99999,7,0,99999,,0,,0,2,390,,99999,0
260206_1528,87,subjects,1,1,43,0,1,0,0,1,0,0,1,0,5c62de3f48fe4e000180e09d,5,1,2,-1,50.5952380952381,-0.00624999999999998,-1,-1,0,99999,99999,0,99999,99999,0,1,0,99999,0,99999,99999,99999,205,10,3,2,99999,0,99999,1,-99,-99,-99,0,0,0,0,-99,9,0,1,0,7,99999,99999,-99,4,99999,99999,99999,99999,1,1,1,0,99999,0,99999,0,1,1,8,0,99999,0,99999,99999,9,1,0,-99,18,-99,1,1,1,1,1,1,1,1,0,0,0,0,0,0,0,0,3,5,2,4,7,8,1,6,2,8,7,8,4,4,6,5,1,0,99999,99999,1,99999,1,0,2,99999,1,0,0,0,1,0,0,0,0,0,1,I didn't like the time pressure - it didn't feel like long enough. ,99999,1,0,5,4,99999,1,50,2,35,99999,7,0,99999,,0,,0,1,525,,99999,0
260206_1528,89,subjects,1,1,44,0,1,0,0,1,0,0,1,0,57c426fa9fe51d00012391f1,5,1,2,-1,51.6855083264803,-0.0165974543644832,-1,-1,0,99999,99999,0,99999,99999,0,1,0,99999,0,99999,99999,99999,205,10,3,1,99999,0,99999,1,-99,-99,-99,0,0,0,0,-99,9,0,2,1,6,99999,99999,-99,8,99999,99999,99999,99999,1,2,1,0,99999,0,99999,1,-99,-99,-99,-99,0,0,0,99999,9,1,0,-99,18,-99,1,1,0,0,0,0,0,0,0,0,0,0,0,0,0,0,7,4,2,6,8,3,5,1,4,8,7,5,1,5,2,5,1,-99,99999,99999,0,99999,5,2,1,99999,0,1,0,1,0,0,0,0,0,0,0,,99999,2,5,3,1,99999,1,61,6,15,99999,7,0,99999,,0,,0,5,390,,99999,0
260206_1528,91,subjects,1,1,45,0,1,0,0,1,0,0,1,0,6122b9ffce05d8e56860755a,5,1,2,-1,54.6493602362205,-0.00258152173913045,-1,-1,0,99999,99999,0,99999,99999,0,1,0,99999,0,99999,99999,99999,205,10,3,1,99999,0,99999,1,-99,-99,-99,0,0,0,0,-99,9,0,1,1,5,99999,99999,-99,8,99999,99999,99999,99999,1,2,1,0,99999,0,99999,1,-99,-99,-99,-99,0,0,0,99999,9,1,0,-99,18,-99,1,1,1,1,1,1,1,1,0,0,0,0,0,0,0,0,8,7,4,3,6,1,5,2,4,4,8,2,5,6,8,5,1,0,99999,99999,1,99999,1,1,6,99999,1,1,0,0,0,0,0,0,1,0,0,,99999,6,5,4,7,99999,1,45,3,45,99999,7,0,99999,,0,,0,7,235,,99999,0
260206_1528,93,subjects,1,1,46,0,1,0,0,1,0,1,0,0,5a7226d9f660ae0001a9a547,5,1,2,-1,51.3413292253521,0.0198609983766234,-1,-1,0,99999,99999,0,99999,99999,0,1,0,99999,0,99999,99999,99999,205,10,3,2,99999,0,99999,1,-99,-99,-99,0,0,0,0,-99,9,0,2,1,10,99999,99999,-99,10,99999,99999,99999,99999,0,1,1,0,99999,0,99999,0,0,1,8,0,99999,0,99999,99999,9,1,0,-99,18,-99,1,0,1,0,0,0,0,1,0,0,0,0,0,0,0,0,6,4,2,5,3,7,1,8,5,6,5,8,3,6,6,4,1,-99,99999,99999,1,99999,4,1,10,99999,0,1,0,0,0,0,0,0,0,0,0,,99999,0,0,0,0,99999,1,26,2,25,99999,7,0,99999,,0,,0,8,390,,99999,0
260206_1528,95,subjects,1,1,47,0,1,0,0,1,0,1,0,0,634d7250f674c11a71d1b88e,5,1,2,-1,48.6809908389585,-0.00155308734939758,-1,-1,0,99999,99999,0,99999,99999,0,1,0,99999,0,99999,99999,99999,205,10,3,1,99999,0,99999,1,-99,-99,-99,0,0,0,0,-99,9,0,2,1,8,99999,99999,-99,8,99999,99999,99999,99999,1,2,1,0,99999,0,99999,1,-99,-99,-99,-99,0,0,0,99999,9,1,0,-99,18,-99,0,1,0,0,0,0,0,0,0,0,0,1,0,0,0,0,7,5,8,3,2,1,6,4,6,8,8,-1,8,5,4,7,1,-99,99999,99999,0,99999,6,4,3,99999,0,1,0,0,1,0,0,0,1,0,0,,99999,9,7,8,9,99999,0,46,3,105,99999,7,0,99999,,0,,0,5,610,Good luck with the study,99999,0
260206_1528,97,subjects,1,1,48,0,1,0,0,1,0,0,1,0,6978c44bfdb386a298f23345,5,1,2,-1,50.4208846830986,0.0228665865384615,-1,-1,0,99999,99999,0,99999,99999,0,1,0,99999,0,99999,99999,99999,205,10,3,2,99999,0,99999,1,-99,-99,-99,0,0,0,0,-99,9,0,2,1,8,99999,99999,-99,7,99999,99999,99999,99999,0,1,8,0,99999,0,99999,0,0,2,8,0,99999,0,99999,99999,9,1,0,-99,18,-99,0,1,0,1,0,1,0,0,0,0,0,0,0,0,0,0,6,8,1,5,4,7,3,2,5,4,6,8,1,4,7,8,1,-99,99999,99999,0,99999,3,6,1,99999,0,1,0,0,1,0,0,0,1,0,0,,99999,4,5,5,10,99999,1,34,6,105,99999,7,0,99999,,0,,0,6,0,"No, it was interesting",99999,0
260206_1528,99,subjects,1,1,49,0,1,0,0,1,0,0,1,0,677e7a411cbcd54ed0c8f545,5,1,2,-1,54.2247955070054,-0.0237209113069283,-1,-1,0,99999,99999,0,99999,99999,0,1,0,99999,0,99999,99999,99999,205,10,3,2,99999,0,99999,1,-99,-99,-99,0,0,0,0,-99,9,0,2,1,10,99999,99999,-99,8,99999,99999,99999,99999,1,1,1,0,99999,0,99999,2,1,2,1,0,99999,0,99999,99999,9,1,0,-99,18,-99,1,1,1,1,1,1,1,1,0,0,0,0,0,0,0,0,2,8,5,1,7,4,3,6,7,4,8,6,4,4,2,5,1,0,99999,99999,1,99999,1,1,1,99999,0,1,0,0,0,0,0,0,1,1,0,,99999,3,5,4,8,99999,0,61,5,95,99999,7,0,99999,,0,,0,5,0,,99999,0
260206_1528,101,subjects,1,1,50,0,1,0,0,1,0,1,0,0,67c83488e67b25dcb923d96d,3,-1,-1,-1,-1,-1,-1,-1,0,99999,99999,31,0,0,0,0,0,0,0,0,0,0,-99,-99,-99,1,0,0,0,0,-99,-99,-99,0,0,0,1,-99,9,4,0,0,0,0,0,-99,-99,0,0,0,0,-99,-99,-99,-99,0,0,0,0,-99,-99,-99,-99,0,0,0,0,1,1,1,-99,0,1,0,0,0,0,0,0,0,0,0,0,0,0,0,0,0,0,0,0,0,0,0,0,0,0,0,0,0,0,0,0,0,0,0,0,0,0,-99,0,0,0,0,0,0,0,0,0,0,0,0,0,0,0,0,,0,0,0,0,0,0,0,0,0,0,0,-99,-99,0,,0,,0,6,-99,,0,0
260206_1528,101,subjects,1,1,50,0,1,0,0,1,1,1,0,0,67c83488e67b25dcb923d96d,3,-1,-1,-1,-1,-1,-1,-1,0,99999,99999,31,0,0,0,0,0,0,0,0,0,0,-99,-99,-99,1,0,0,0,0,-99,-99,-99,0,0,0,1,-99,9,4,0,0,0,0,0,-99,-99,0,0,0,0,-99,-99,-99,-99,0,0,0,0,-99,-99,-99,-99,0,0,0,0,1,1,1,-99,0,1,0,0,0,0,0,0,0,0,0,0,0,0,0,0,0,0,0,0,0,0,0,0,0,0,0,0,0,0,0,0,0,0,0,0,0,0,-99,0,0,0,0,0,0,0,0,0,0,0,0,0,0,0,0,,0,0,0,0,0,0,0,0,0,0,0,-99,-99,0,,0,,0,6,-99,,0,0
260206_1528,103,subjects,1,1,51,0,1,0,0,1,0,1,0,0,59e65d85c0d35a0001295175,5,1,2,-1,51.8536370133555,-0.0162161749762458,-1,-1,0,99999,99999,0,99999,99999,0,1,0,99999,0,99999,99999,99999,205,10,3,2,99999,0,99999,1,-99,-99,-99,0,0,0,0,-99,9,0,1,1,9,99999,99999,-99,7,99999,99999,99999,99999,1,2,8,0,99999,0,99999,0,0,2,8,0,99999,0,99999,99999,9,1,0,-99,18,-99,0,0,0,1,0,0,1,1,1,1,1,0,0,1,0,0,3,4,7,1,5,6,2,8,7,2,-1,3,5,5,5,4,1,-99,99999,99999,1,99999,7,3,8,99999,0,1,0,1,1,0,0,0,0,0,0,,99999,7,4,7,7,99999,1,43,5,75,99999,7,0,99999,,0,,0,8,330,,99999,0
260206_1528,105,subjects,1,1,52,0,1,0,0,1,0,0,1,0,5eb53966bcc7ec02d9dab736,5,1,2,-1,53.9858985223365,0.0210246798358386,-1,-1,0,99999,99999,0,99999,99999,0,1,0,99999,0,99999,99999,99999,205,10,3,1,99999,0,99999,1,-99,-99,-99,0,0,0,0,-99,9,0,1,1,5,99999,99999,-99,5,99999,99999,99999,99999,1,2,1,0,99999,0,99999,1,-99,-99,-99,-99,0,0,0,99999,9,1,0,-99,18,-99,1,1,1,1,1,1,1,1,0,0,0,0,0,0,0,0,7,1,6,2,4,3,5,8,4,6,5,5,8,2,8,4,1,0,99999,99999,1,99999,4,2,5,99999,1,1,0,0,0,0,0,0,0,0,0,,99999,5,4,6,5,99999,1,43,4,-1,99999,7,0,99999,,0,,0,6,0,,99999,0
260206_1528,107,subjects,1,1,53,0,1,0,0,1,0,1,0,0,5829f8eed7e5ff0001ff7d8d,5,1,2,-1,53.0526315789474,-0.00287356321839083,-1,-1,0,99999,99999,0,99999,99999,0,1,0,99999,0,99999,99999,99999,205,10,3,2,99999,0,99999,1,-99,-99,-99,0,0,0,0,-99,9,0,2,0,8,99999,99999,-99,8,99999,99999,99999,99999,1,2,8,0,99999,0,99999,2,1,2,1,0,99999,0,99999,99999,9,1,0,-99,18,-99,1,0,1,0,1,1,0,1,0,0,0,0,0,0,0,0,6,7,2,3,1,5,4,8,5,6,5,6,3,8,3,4,1,-99,99999,99999,1,99999,7,1,5,99999,0,1,0,0,0,0,0,0,1,0,0,,99999,7,7,10,6,99999,0,67,4,25,99999,7,0,99999,,0,,0,1,265,I really enjoyed this study thank you,99999,0
260206_1528,109,subjects,1,1,54,0,1,0,0,1,0,0,1,0,55c495d2fdf99b2d6cabb691,5,1,2,-1,50.7403017241379,-0.0222553453947368,-1,-1,0,99999,99999,0,99999,99999,0,1,0,99999,0,99999,99999,99999,205,10,3,2,99999,0,99999,1,-99,-99,-99,0,0,0,0,-99,9,0,1,1,4,99999,99999,-99,8,99999,99999,99999,99999,1,1,1,0,99999,0,99999,0,1,1,1,10,99999,0,99999,99999,9,1,1,-99,18,-99,0,0,0,0,0,0,0,0,0,1,1,1,1,1,1,1,5,2,7,8,6,1,3,4,5,4,4,2,5,4,6,4,1,-99,99999,99999,0,99999,5,1,5,99999,0,0,0,0,1,0,0,0,0,0,0,,99999,2,2,3,10,99999,1,30,5,105,99999,7,0,99999,,0,,0,2,255,no,99999,0
260206_1528,111,subjects,1,1,55,0,1,0,0,1,0,0,1,0,665d5a08c8e61c18498d08c9,5,1,2,-1,52.6454207920792,-0.00884955752212391,-1,-1,0,99999,99999,0,99999,99999,0,1,0,99999,0,99999,99999,99999,205,10,3,1,99999,0,99999,1,-99,-99,-99,0,0,0,0,-99,9,0,2,1,3,99999,99999,-99,8,99999,99999,99999,99999,1,2,1,0,99999,0,99999,1,-99,-99,-99,-99,0,0,0,99999,9,1,0,-99,18,-99,1,-1,0,0,1,1,0,1,0,0,0,0,0,0,0,0,4,7,6,1,2,3,5,8,4,-1,5,4,7,7,5,4,1,-99,99999,99999,1,99999,5,5,6,99999,1,0,0,0,0,0,0,0,0,0,0,,99999,5,6,7,5,99999,1,30,5,85,99999,7,0,99999,,0,,0,3,265,,99999,0
260206_1528,113,subjects,1,1,56,0,1,0,0,1,0,1,0,0,666c50576894ee3e6696af53,5,1,2,-1,50.5287498763845,-0.0113466535295759,-1,-1,0,99999,99999,0,99999,99999,0,1,0,99999,0,99999,99999,99999,0,25,3,1,99999,0,99999,2,3,205,10,99999,99999,0,0,-99,9,0,1,0,9,99999,99999,-99,8,99999,99999,99999,99999,1,2,1,0,99999,0,99999,1,-99,-99,-99,-99,0,0,0,99999,9,1,0,-99,18,-99,1,0,1,0,1,0,0,1,0,1,0,0,0,0,1,0,5,7,2,8,3,6,1,4,8,5,5,6,2,6,8,8,1,-99,99999,99999,0,99999,4,5,5,99999,0,1,0,0,1,1,0,0,0,0,0,,99999,9,8,5,9,99999,0,23,4,45,99999,7,0,99999,,0,,0,3,0,,99999,0
260206_1528,115,subjects,1,1,57,0,1,0,0,1,0,1,0,0,60da18693053b2c1d420085f,5,1,2,-1,48.7368421052632,0,-1,-1,0,99999,99999,0,99999,99999,0,1,0,99999,0,99999,99999,99999,205,10,1,2,99999,99999,99999,-99,3,205,5,99999,99999,0,0,-99,9,0,2,0,7,99999,99999,-99,8,99999,99999,99999,99999,1,1,1,0,99999,0,99999,0,0,2,8,0,99999,0,99999,99999,9,1,0,-99,18,-99,0,1,0,1,1,0,1,-1,0,0,0,0,0,0,0,0,8,5,6,1,3,2,7,4,4,8,5,3,2,5,4,-1,1,-99,99999,99999,0,99999,5,3,4,99999,0,0,1,1,0,0,0,0,0,0,0,,99999,8,1,5,2,99999,1,32,3,25,99999,6,0,99999,,0,,0,8,-99,,99999,0
260206_1528,117,subjects,1,1,58,0,1,0,0,1,0,0,1,0,657065aa0c153f5a01470d1b,5,1,2,-1,50.3313632274237,-0.00457524318321079,-1,-1,0,99999,99999,0,99999,99999,0,1,0,99999,0,99999,99999,99999,205,10,3,1,99999,0,99999,1,-99,-99,-99,0,0,0,0,-99,9,0,2,1,8,99999,99999,-99,7,99999,99999,99999,99999,1,2,1,0,99999,0,99999,1,-99,-99,-99,-99,0,0,0,99999,9,1,1,-99,18,-99,0,0,0,0,0,0,0,0,1,1,0,0,0,0,1,1,5,8,4,7,1,6,2,3,5,1,3,8,4,5,7,3,1,-99,99999,99999,0,99999,2,1,2,99999,0,0,0,1,1,0,0,0,0,0,0,,99999,7,3,6,7,99999,0,71,5,55,99999,7,0,99999,,0,,0,5,205,The study was clear and straightforward. ,99999,0
260206_1528,119,subjects,1,1,59,0,1,0,0,1,0,1,0,0,5c4e38f4d3a5e300018363ba,5,1,2,-1,50.3065950163118,-0.0160305809428674,-1,-1,0,99999,99999,0,99999,99999,0,1,0,99999,0,99999,99999,99999,205,10,3,1,99999,0,99999,1,-99,-99,-99,0,0,0,0,-99,9,0,2,1,8,99999,99999,-99,8,99999,99999,99999,99999,1,2,1,0,99999,0,99999,1,-99,-99,-99,-99,0,0,0,99999,9,1,0,-99,18,-99,0,0,0,1,0,0,1,0,0,0,0,0,0,0,0,0,7,2,3,4,8,5,6,1,5,3,8,8,2,8,5,6,1,-99,99999,99999,0,99999,4,2,8,99999,1,1,1,1,1,0,0,0,1,0,0,,99999,8,0,10,8,99999,0,49,2,25,99999,7,0,99999,,0,,0,6,235,,99999,0
260206_1528,121,subjects,1,1,60,0,1,0,0,1,0,1,0,0,66eada82e2a59d472d2dd086,5,1,2,-1,50.2563820422535,0.0143060064935064,-1,-1,0,99999,99999,0,99999,99999,0,1,0,99999,0,99999,99999,99999,205,10,3,2,99999,0,99999,1,-99,-99,-99,0,0,0,0,-99,9,0,1,1,6,99999,99999,-99,6,99999,99999,99999,99999,1,2,8,0,99999,0,99999,2,1,2,1,0,99999,0,99999,99999,9,1,1,-99,18,-99,1,1,0,1,1,0,1,0,0,0,1,0,0,1,0,1,5,7,4,8,6,1,2,3,8,4,6,4,5,3,5,2,1,0,99999,99999,0,99999,5,5,1,99999,1,1,0,0,1,0,0,0,1,0,0,,99999,6,5,4,4,99999,1,21,4,75,99999,7,0,99999,,0,,0,2,320,,99999,0
260206_1528,123,subjects,1,1,61,0,1,0,0,1,0,0,1,0,5967e9a831394d0001abdb3f,5,1,2,-1,52.8513479346051,0.0107689898947011,-1,-1,0,99999,99999,0,99999,99999,0,1,0,99999,0,99999,99999,99999,205,10,3,2,99999,0,99999,1,-99,-99,-99,0,0,0,0,-99,9,0,2,1,8,99999,99999,-99,8,99999,99999,99999,99999,1,1,1,0,99999,0,99999,2,1,2,1,0,99999,0,99999,99999,9,1,0,-99,18,-99,1,1,1,1,1,1,1,1,0,0,0,0,0,0,0,0,5,4,8,1,3,7,2,6,8,4,4,6,7,4,7,5,1,0,99999,99999,0,99999,5,2,10,99999,1,1,0,1,1,1,0,1,1,0,0,,99999,1,8,5,3,99999,1,61,2,35,99999,7,0,99999,,0,,0,8,0,Yes. The bonus on offer is misleading,99999,0
260206_1528,125,subjects,1,1,62,0,1,0,0,1,0,0,1,0,5d879c06e645c60019847113,5,1,2,-1,51.5789473684211,0.0165745856353591,-1,-1,0,99999,99999,0,99999,99999,0,1,0,99999,0,99999,99999,99999,205,10,3,2,99999,0,99999,1,-99,-99,-99,0,0,0,0,-99,9,0,1,0,6,99999,99999,-99,8,99999,99999,99999,99999,0,1,8,0,99999,0,99999,0,0,0,8,0,99999,0,99999,99999,9,1,1,-99,18,-99,0,1,0,0,1,1,0,0,0,0,1,0,0,0,1,1,2,7,8,6,3,4,5,1,7,4,1,1,7,4,8,4,1,-99,99999,99999,0,99999,3,1,7,99999,0,0,0,0,1,0,0,0,0,0,0,,99999,7,4,7,6,99999,1,37,5,25,99999,7,0,99999,,0,,0,1,0,n/a,99999,0
260206_1528,127,subjects,1,1,63,0,1,0,0,1,0,1,0,0,5f778d553167a12eae0e1c00,5,1,2,-1,47.200593575419,-0.0163773148148148,-1,-1,0,99999,99999,0,99999,99999,0,1,0,99999,0,99999,99999,99999,205,10,2,2,99999,0,99999,2,3,205,10,99999,99999,0,0,-99,9,0,2,0,8,99999,99999,-99,6,99999,99999,99999,99999,1,1,1,0,99999,0,99999,2,1,2,1,0,99999,0,99999,99999,9,1,0,-99,18,-99,0,1,1,0,0,0,0,0,0,0,0,0,0,0,0,0,8,5,4,2,6,3,1,7,1,8,8,3,6,6,4,1,1,-99,99999,99999,0,99999,3,0,3,99999,1,0,0,0,0,0,0,0,0,0,0,,99999,3,5,4,1,99999,1,33,4,25,99999,7,0,99999,,0,,0,4,255,no,99999,0
260206_1528,129,subjects,1,1,64,0,1,0,0,1,0,1,0,0,582f8bbd4cadc80001b0fbd3,5,1,2,-1,51.6780187585852,-0.0160305809428674,-1,-1,0,99999,99999,0,99999,99999,0,1,0,99999,0,99999,99999,99999,205,10,3,1,99999,0,99999,1,-99,-99,-99,0,0,0,0,-99,9,0,2,0,8,99999,99999,-99,8,99999,99999,99999,99999,1,2,1,0,99999,0,99999,1,-99,-99,-99,-99,0,0,0,99999,9,1,0,-99,18,-99,1,1,1,0,0,0,0,0,0,0,0,0,0,0,0,0,5,7,4,3,1,2,8,6,8,4,8,3,6,7,2,2,1,-99,99999,99999,0,99999,6,2,9,99999,0,0,0,0,1,0,0,0,0,0,0,,99999,7,2,8,7,99999,0,45,2,55,99999,7,0,99999,,0,,0,4,290,,99999,0
260206_1528,131,subjects,1,1,65,0,1,0,0,1,0,1,0,0,63f11d008327663bc314b53b,5,1,2,-1,52.2054912860577,0.0275363645691803,-1,-1,0,99999,99999,0,99999,99999,0,1,0,99999,0,99999,99999,99999,205,10,3,1,99999,0,99999,1,-99,-99,-99,0,0,0,0,-99,9,0,1,1,9,99999,99999,-99,7,99999,99999,99999,99999,1,2,1,0,99999,99999,99999,1,-99,-99,-99,-99,0,0,0,99999,9,1,0,-99,18,-99,1,0,1,1,0,1,0,1,0,0,0,0,0,0,0,0,1,3,6,7,2,4,5,8,3,3,5,4,7,8,5,4,1,-99,99999,99999,1,99999,0,0,9,99999,1,1,0,0,0,1,1,0,0,1,0,,99999,7,7,6,8,99999,0,60,4,65,99999,6,0,99999,,0,,0,8,360,Interesting study - thanks for the opportunity to take part.,99999,0
260206_1528,133,subjects,1,1,66,0,1,0,0,1,0,0,1,0,667c2175b570aa694ce2f63c,5,1,2,-1,50.3065950163118,0.0206107802063454,-1,-1,0,99999,99999,0,99999,99999,0,1,0,99999,0,99999,99999,99999,205,10,3,2,99999,0,99999,1,-99,-99,-99,0,0,0,0,-99,9,0,2,1,9,99999,99999,-99,8,99999,99999,99999,99999,1,1,1,0,99999,0,99999,0,1,0,1,0,99999,0,99999,99999,9,1,0,-99,18,-99,1,0,0,1,1,0,0,1,0,0,0,0,0,0,0,0,4,7,1,8,6,5,3,2,4,6,6,4,5,2,1,5,1,-99,99999,99999,0,99999,4,1,8,99999,0,1,0,0,0,0,0,0,0,0,0,,99999,10,9,10,10,99999,0,44,2,65,99999,7,0,99999,,0,,0,3,0,,99999,0
260206_1528,137,subjects,1,1,68,0,1,0,0,1,0,0,1,0,5ec1a76a903b335cae864ca8,5,1,2,-1,52.521978021978,0.00228998315243323,-1,-1,0,99999,99999,0,99999,99999,0,1,0,99999,0,99999,99999,99999,205,10,3,2,99999,0,99999,1,-99,-99,-99,0,0,0,0,-99,9,0,1,0,7,99999,99999,-99,8,99999,99999,99999,99999,1,1,1,0,99999,0,99999,2,1,2,1,0,99999,0,99999,99999,9,1,0,-99,18,-99,0,0,0,0,0,0,0,0,1,0,0,1,0,0,0,0,2,6,3,4,1,7,8,5,3,1,3,6,6,6,2,8,1,-99,99999,99999,1,99999,7,0,1,99999,0,1,0,0,0,0,0,0,1,0,0,,99999,2,6,0,3,99999,0,39,4,35,99999,7,0,99999,,0,,0,5,225,,99999,0
260206_1528,139,subjects,1,1,69,0,1,0,0,1,0,1,0,0,681b781064a5701a5ceee3bc,5,1,2,-1,51.8947368421053,-0.0142045454545455,-1,-1,0,99999,99999,0,99999,99999,0,1,0,99999,0,99999,99999,99999,205,10,3,1,99999,0,99999,1,-99,-99,-99,0,0,0,0,-99,9,0,2,0,6,99999,99999,-99,7,99999,99999,99999,99999,1,2,1,0,99999,0,99999,1,-99,-99,-99,-99,0,0,0,99999,9,1,0,-99,18,-99,0,0,0,1,0,0,0,0,0,0,0,0,0,0,0,0,1,8,6,4,2,5,7,3,5,2,2,8,3,8,6,1,1,-99,99999,99999,0,99999,4,0,2,99999,0,1,0,0,1,0,0,0,1,0,1,"I would take a higher chance of a low win over a lower chance of a high win, the computer cannot be instructed to take this into account",99999,2,6,10,3,99999,1,54,5,35,99999,7,0,99999,,0,,0,3,235,,99999,0
260206_1528,141,subjects,1,1,70,0,1,0,0,1,0,0,1,0,63f8eaeb261f726a83d65177,5,1,2,-1,51.0526315789474,0.00552486187845302,-1,-1,0,99999,99999,0,99999,99999,0,1,0,99999,0,99999,99999,99999,205,10,3,1,99999,0,99999,1,-99,-99,-99,0,0,0,0,-99,9,0,1,0,8,99999,99999,-99,6,99999,99999,99999,99999,1,2,1,0,99999,99999,99999,1,-99,-99,-99,-99,0,0,0,99999,9,1,0,-99,18,-99,0,0,0,0,0,0,0,0,1,0,0,0,0,0,0,0,2,4,8,3,6,5,1,7,4,6,1,7,1,8,6,6,1,-99,99999,99999,0,99999,5,3,5,99999,1,1,0,0,0,1,0,0,0,0,0,,99999,2,2,0,0,99999,0,20,2,75,99999,6,0,99999,,0,,0,5,0,,99999,0
260206_1528,143,subjects,1,1,71,0,1,0,0,1,0,0,1,0,5b94fc0fc168f80001104860,5,1,2,-1,53.8949706404445,-0.00591158866882324,-1,-1,0,99999,99999,0,99999,99999,0,1,0,99999,0,99999,99999,99999,205,20,3,2,99999,0,99999,2,3,205,10,99999,99999,0,0,-99,9,0,2,1,8,99999,99999,-99,8,99999,99999,99999,99999,0,1,8,0,99999,0,99999,0,1,2,8,0,99999,0,99999,99999,9,1,0,-99,18,-99,1,0,0,0,1,0,0,0,0,0,0,0,0,0,0,0,4,8,2,1,6,7,3,5,4,1,4,6,5,1,3,8,1,-99,99999,99999,0,99999,5,2,9,99999,0,0,0,0,1,0,0,0,0,0,0,,99999,6,0,6,3,99999,1,51,1,25,99999,6,0,99999,,0,,0,1,0,no,99999,0
260206_1528,145,subjects,1,1,72,0,1,0,0,1,0,0,1,0,59b5a275c05bb50001eb3c4b,5,1,2,-1,51.9095522622927,0.0219638887689917,-1,-1,0,99999,99999,0,99999,99999,0,1,0,99999,0,99999,99999,99999,205,25,3,2,99999,0,99999,-99,4,205,25,99999,99999,0,0,-99,9,0,2,1,9,99999,99999,-99,9,99999,99999,99999,99999,1,1,1,10,99999,0,99999,0,0,1,1,20,99999,0,99999,99999,9,1,0,-99,18,-99,1,1,0,1,-1,1,1,1,0,0,0,0,0,0,0,0,2,3,5,6,8,7,4,1,7,2,8,5,-1,4,4,3,1,-99,99999,99999,1,99999,2,8,8,99999,0,1,0,0,0,0,0,0,0,0,0,,99999,7,6,8,10,99999,0,47,1,25,99999,7,0,99999,,0,,0,1,255,,99999,0
260206_1528,147,subjects,1,1,73,0,1,0,0,1,0,0,1,0,66854ca22a0b1e7e87b469a4,5,1,2,-1,52.280701754386,0.00203252032520329,-1,-1,0,99999,99999,0,99999,99999,0,1,0,99999,0,99999,99999,99999,205,10,1,1,99999,99999,99999,2,3,205,10,99999,99999,0,0,-99,9,0,2,0,10,99999,99999,-99,7,99999,99999,99999,99999,1,2,1,0,99999,0,99999,1,-99,-99,-99,-99,0,0,0,99999,9,1,0,-99,18,-99,1,1,1,0,1,1,1,1,0,0,0,0,0,0,0,0,4,5,8,2,3,7,6,1,8,8,4,8,2,4,4,3,1,-99,99999,99999,1,99999,3,0,7,99999,0,1,0,0,0,0,0,0,1,0,1,I liked the surprise,99999,2,7,3,9,99999,0,47,4,105,99999,7,0,99999,,0,,0,7,0,,99999,0
260206_1528,149,subjects,1,1,74,0,1,0,0,1,0,1,0,0,6663f3b2bc244a2d789b70a3,5,1,2,-1,52.2054912860577,0.0157895195753055,-1,-1,0,99999,99999,0,99999,99999,0,1,0,99999,0,99999,99999,99999,205,10,3,2,99999,0,99999,1,-99,-99,-99,0,0,0,0,-99,9,0,1,0,9,99999,99999,-99,7,99999,99999,99999,99999,1,1,1,0,99999,0,99999,0,0,0,1,0,99999,0,99999,99999,9,1,0,-99,18,-99,1,1,1,1,1,0,0,0,0,0,0,0,0,0,0,0,1,6,4,5,7,2,3,8,3,5,8,8,4,4,5,4,1,-99,99999,99999,0,99999,1,1,9,99999,1,1,0,0,0,0,0,0,0,0,0,,99999,2,3,8,9,99999,1,36,4,35,99999,7,0,99999,,0,,0,8,390,,99999,0
260206_1528,153,subjects,1,1,76,0,1,0,0,1,0,0,1,0,63039343fd5a2e6fb88d2c61,5,1,2,-1,53.500550660793,0.00261780104712039,-1,-1,0,99999,99999,0,99999,99999,0,1,0,99999,0,99999,99999,99999,205,10,3,2,99999,0,99999,1,-99,-99,-99,0,0,0,0,-99,9,0,2,1,9,99999,99999,-99,8,99999,99999,99999,99999,1,2,8,0,99999,0,99999,0,1,1,1,0,99999,0,99999,99999,9,1,0,-99,18,-99,1,1,1,1,1,1,1,1,0,0,0,0,0,0,0,0,4,2,7,8,1,6,3,5,4,7,4,4,6,5,7,8,1,0,99999,99999,1,99999,2,0,2,99999,0,1,0,0,0,0,0,0,0,0,0,,99999,3,2,6,5,99999,0,42,2,45,99999,7,0,99999,,0,,0,1,390,No,99999,0
260206_1528,155,subjects,1,1,77,0,1,0,0,1,0,0,1,0,5bfc2227f88f3900014b0e1d,5,1,2,-1,51.6851687388988,-0.00578034682080925,-1,-1,0,99999,99999,0,99999,99999,0,1,0,99999,0,99999,99999,99999,205,10,3,1,99999,0,99999,1,-99,-99,-99,0,0,0,0,-99,9,0,2,0,8,99999,99999,-99,6,99999,99999,99999,99999,1,2,1,0,99999,0,99999,1,-99,-99,-99,-99,0,0,0,99999,9,1,0,-99,18,-99,1,0,0,0,0,1,1,0,0,0,0,0,0,0,0,0,6,8,5,2,7,3,4,1,5,6,8,7,3,2,8,6,1,-99,99999,99999,1,99999,5,1,7,99999,0,1,0,0,0,1,0,0,1,1,0,,99999,6,4,4,10,99999,1,29,4,75,99999,1,0,99999,,0,,0,7,890,,99999,0
260206_1528,157,subjects,1,1,78,0,1,0,0,1,0,1,0,0,6765e63b9cbc0ec185d7e8fa,5,1,2,-1,51.0535871478873,-0.0122410973837209,-1,-1,0,99999,99999,0,99999,99999,0,1,0,99999,0,99999,99999,99999,205,10,3,2,99999,0,99999,1,-99,-99,-99,0,0,0,0,-99,9,0,2,1,10,99999,99999,-99,10,99999,99999,99999,99999,1,1,1,0,99999,0,99999,0,1,1,1,0,99999,0,99999,99999,9,1,0,-99,18,-99,1,0,1,-1,1,1,1,1,0,0,0,0,0,0,0,0,1,2,3,7,8,4,6,5,3,3,2,-1,4,8,5,8,1,-99,99999,99999,1,99999,10,1,7,99999,0,1,0,0,0,0,0,0,1,1,0,,99999,10,8,10,7,99999,0,46,5,25,99999,7,0,99999,,0,,0,7,235,,99999,0
260206_1528,159,subjects,1,1,79,0,1,0,0,1,0,0,1,0,60fcb280d58f26d33cb004a6,5,1,2,-1,53.5789473684211,0.0220994475138122,-1,-1,0,99999,99999,0,99999,99999,0,1,0,99999,0,99999,99999,99999,205,10,3,2,99999,0,99999,1,-99,-99,-99,0,0,0,0,-99,9,0,2,1,9,99999,99999,-99,9,99999,99999,99999,99999,0,1,1,0,99999,0,99999,0,0,0,1,0,99999,0,99999,99999,9,1,0,-99,18,-99,0,0,0,1,0,0,0,0,0,0,0,0,0,0,0,0,6,3,7,2,4,8,5,1,6,1,3,5,4,6,1,6,1,-99,99999,99999,1,99999,4,1,2,99999,0,0,0,0,0,0,0,0,1,1,0,,99999,9,2,5,9,99999,0,20,2,15,99999,7,0,99999,,0,,0,8,225,,99999,0
260206_1528,161,subjects,1,1,80,0,1,0,0,1,0,1,0,0,5a62653a63394a000155489f,5,1,2,-1,52.083981692136,0.00353937563688855,-1,-1,0,99999,99999,0,99999,99999,0,1,0,99999,0,99999,99999,99999,205,10,3,2,99999,0,99999,1,-99,-99,-99,0,0,0,0,-99,9,0,2,0,6,99999,99999,-99,8,99999,99999,99999,99999,1,2,8,0,99999,0,99999,0,1,1,8,0,99999,0,99999,99999,9,1,0,-99,18,-99,1,1,1,1,1,1,1,1,0,0,0,0,0,0,0,0,1,4,2,7,8,6,5,3,3,8,5,4,4,5,8,2,1,0,99999,99999,1,99999,4,0,6,99999,0,1,0,0,0,0,0,0,0,0,1,I think the computer could apply better logic than me.,99999,3,1,4,4,99999,1,37,4,65,99999,7,0,99999,,0,,0,5,390,,99999,0
260206_1528,163,subjects,1,1,81,0,1,0,0,1,0,0,1,0,574aff1b5bef980007af2745,5,1,2,-1,50.4131905691964,0,-1,-1,0,99999,99999,0,99999,99999,0,1,0,99999,0,99999,99999,99999,205,10,2,2,99999,0,99999,-99,4,205,10,99999,99999,0,0,-99,9,0,1,0,7,99999,99999,-99,5,99999,99999,99999,99999,1,1,1,0,99999,0,99999,2,1,2,1,0,99999,0,99999,99999,9,1,1,-99,18,-99,0,1,0,1,1,0,1,0,1,0,1,0,0,0,0,1,3,6,2,1,7,8,4,5,6,5,4,6,4,4,4,5,1,-99,99999,99999,0,99999,8,5,4,99999,1,0,0,0,0,0,0,0,0,0,0,,99999,0,5,0,3,99999,1,60,2,65,99999,7,0,99999,,0,,0,1,290,,99999,0
260206_1528,165,subjects,1,1,82,0,1,0,0,1,0,1,0,0,6658c833dc9f95822cbcfad6,5,1,2,-1,51.3329273265797,0.00943825461647729,-1,-1,0,99999,99999,0,99999,99999,0,1,0,99999,0,99999,99999,99999,205,10,3,1,99999,0,99999,1,-99,-99,-99,0,0,0,0,-99,9,0,1,0,7,99999,99999,-99,9,99999,99999,99999,99999,1,2,1,0,99999,0,99999,1,-99,-99,-99,-99,0,0,0,99999,9,1,0,-99,18,-99,1,0,0,0,0,0,0,0,0,0,0,0,0,0,0,0,5,4,3,7,1,2,6,8,8,3,3,3,6,2,5,2,1,-99,99999,99999,0,99999,4,4,8,99999,0,1,0,0,1,0,1,0,1,0,0,,99999,3,1,6,1,99999,0,23,1,25,99999,7,0,99999,,0,,0,5,225,,99999,0
260206_1528,167,subjects,1,1,83,0,1,0,0,1,0,0,1,0,57c74977b23f0e000182dc3f,5,1,2,-1,51.5789473684211,-0.00287356321839083,-1,-1,0,99999,99999,0,99999,99999,0,1,0,99999,0,99999,99999,99999,205,10,3,1,99999,99999,99999,1,-99,-99,-99,0,0,0,0,-99,9,0,1,1,9,99999,99999,-99,4,99999,99999,99999,99999,1,2,1,0,99999,0,99999,1,-99,-99,-99,-99,0,0,0,99999,9,1,0,-99,18,-99,1,1,0,1,-1,0,-1,0,0,0,1,0,0,0,0,0,5,8,6,2,4,0,3,7,8,4,3,7,-1,0,5,4,1,-99,99999,99999,1,99999,3,0,2,99999,0,1,0,0,0,0,1,0,1,0,0,,99999,10,6,10,10,99999,1,35,3,25,99999,7,0,99999,,0,,0,5,-99,no comments or anything else to add.,99999,0
260206_1528,169,subjects,1,1,84,0,1,0,0,1,0,0,1,0,56cf6e8d31a5bc0006e1cdf5,5,1,2,-1,51.6557760799632,0.0102040816326531,-1,-1,0,99999,99999,0,99999,99999,0,1,0,99999,0,99999,99999,99999,205,10,3,1,99999,0,99999,1,-99,-99,-99,0,0,0,0,-99,9,0,2,1,7,99999,99999,-99,7,99999,99999,99999,99999,1,2,1,0,99999,0,99999,1,-99,-99,-99,-99,0,0,0,99999,9,1,0,-99,18,-99,1,0,0,1,0,0,0,0,0,1,0,0,0,0,0,0,6,1,3,4,8,2,7,5,5,6,6,4,2,3,4,1,1,-99,99999,99999,0,99999,3,0,2,99999,0,0,1,1,0,0,0,0,1,0,0,,99999,1,3,9,2,99999,1,71,6,105,99999,7,0,99999,,0,,0,5,390,no,99999,0
260206_1528,173,subjects,1,1,86,0,1,0,0,1,0,1,0,0,5cf66ed8912f0b0017c50b52,5,1,2,-1,48.1145466549296,0.00160845588235292,-1,-1,0,99999,99999,0,99999,99999,0,1,0,99999,0,99999,99999,99999,205,5,3,1,99999,0,99999,-99,4,205,5,99999,99999,0,0,-99,9,0,2,1,6,99999,99999,-99,5,99999,99999,99999,99999,1,2,1,0,99999,0,99999,1,-99,-99,-99,-99,0,0,0,99999,9,1,0,-99,18,-99,1,1,0,1,1,0,1,0,0,0,0,0,0,1,0,0,5,6,3,8,2,4,1,7,8,5,1,4,5,8,3,6,1,-99,99999,99999,0,99999,5,3,2,99999,0,1,0,0,0,0,1,0,1,0,0,,99999,4,6,5,9,99999,1,30,5,45,99999,7,0,99999,,0,,0,3,0,,99999,0
260206_1528,175,subjects,1,1,87,0,1,0,0,1,0,1,0,0,62e224848517df9659a5759b,5,1,2,-1,50.1866421634204,-0.0179062520176911,-1,-1,0,99999,99999,0,99999,99999,0,1,0,99999,0,99999,99999,99999,205,10,3,2,99999,0,99999,1,-99,-99,-99,0,0,0,0,-99,9,0,2,1,6,99999,99999,-99,5,99999,99999,99999,99999,1,1,1,0,99999,0,99999,0,1,1,8,0,99999,0,99999,99999,9,1,0,-99,18,-99,1,1,0,0,1,1,1,1,0,0,1,0,0,0,0,0,2,8,5,4,3,1,6,7,5,4,1,4,2,3,5,4,1,-99,99999,99999,1,99999,10,2,7,99999,1,1,0,0,1,1,1,0,1,0,0,,99999,3,0,5,0,99999,0,21,3,5,99999,6,0,99999,,0,,0,7,0,,99999,0
260206_1528,177,subjects,1,1,88,0,1,0,0,1,0,0,1,0,5f8aa207fb62d0000838847c,7,-1,-1,-1,-1,-1,-1,-1,0,99999,99999,50,0,0,0,0,0,0,0,0,0,0,-99,-99,-99,1,0,0,0,0,-99,-99,-99,0,0,0,1,-99,9,4,0,0,0,0,0,-99,-99,0,0,0,0,-99,-99,-99,-99,0,0,0,0,-99,-99,-99,-99,0,0,0,0,1,1,1,-99,0,1,0,0,0,0,0,0,0,0,0,0,0,0,0,0,0,0,0,0,0,0,0,0,0,0,0,0,0,0,0,0,0,0,0,0,0,0,-99,0,0,0,0,0,0,0,0,0,0,0,0,0,0,0,0,,0,0,0,0,0,0,0,0,0,0,0,-99,-99,0,,0,,0,3,-99,,0,0
260206_1528,177,subjects,1,1,88,0,1,0,0,1,1,0,1,0,5f8aa207fb62d0000838847c,7,-1,-1,-1,-1,-1,-1,-1,0,99999,99999,50,0,0,0,0,0,0,0,0,0,0,-99,-99,-99,1,0,0,0,0,-99,-99,-99,0,0,0,1,-99,9,4,0,0,0,0,0,-99,-99,0,0,0,0,-99,-99,-99,-99,0,0,0,0,-99,-99,-99,-99,0,0,0,0,1,1,1,-99,0,1,0,0,0,0,0,0,0,0,0,0,0,0,0,0,0,0,0,0,0,0,0,0,0,0,0,0,0,0,0,0,0,0,0,0,0,0,-99,0,0,0,0,0,0,0,0,0,0,0,0,0,0,0,0,,0,0,0,0,0,0,0,0,0,0,0,-99,-99,0,,0,,0,4,-99,,0,0
260206_1528,179,subjects,1,1,89,0,1,0,0,1,0,1,0,0,669aa678bee50f1a83b7d2a7,5,1,2,-1,50.379746835443,0.00362318840579712,-1,-1,0,99999,99999,0,99999,99999,0,1,0,99999,0,99999,99999,99999,205,5,3,2,99999,0,99999,-99,4,205,5,99999,99999,0,0,-99,9,0,1,1,6,99999,99999,-99,2,99999,99999,99999,99999,0,1,8,5,99999,0,99999,0,1,2,8,0,99999,0,99999,99999,9,1,0,-99,18,-99,-1,0,0,0,0,0,0,1,1,1,0,0,0,0,0,0,4,6,7,5,2,3,1,8,-1,5,4,5,2,4,6,4,1,-99,99999,99999,0,99999,5,7,6,99999,0,0,0,0,1,0,0,0,0,0,0,,99999,5,6,6,4,99999,0,41,2,55,99999,3,0,99999,,0,,0,5,205,,99999,0
260206_1528,181,subjects,1,1,90,0,1,0,0,1,0,0,1,0,5d440b524d4b4a001679bdf5,5,1,2,-1,49.5238095238095,0.0147058823529411,-1,-1,0,99999,99999,0,99999,99999,0,1,0,99999,0,99999,99999,99999,205,10,3,1,99999,0,99999,1,-99,-99,-99,0,0,0,0,-99,9,0,1,0,8,99999,99999,-99,7,99999,99999,99999,99999,1,2,1,0,99999,0,99999,1,-99,-99,-99,-99,0,0,0,99999,9,1,0,-99,18,-99,1,1,0,1,0,1,1,1,0,0,1,0,1,0,0,0,1,2,4,3,6,5,8,7,6,7,3,2,-1,8,4,4,1,0,99999,99999,1,99999,2,1,5,99999,0,0,0,0,0,0,0,0,1,0,0,,99999,6,5,5,3,99999,1,45,5,105,99999,7,0,99999,,0,,0,5,-99,no,99999,0
260206_1528,183,subjects,1,1,91,0,1,0,0,1,0,1,0,0,5edbd2c61d9e420b6b420343,5,1,2,-1,51.6933715145891,-0.0160643795886672,-1,-1,0,99999,99999,0,99999,99999,0,1,0,99999,0,99999,99999,99999,205,10,3,1,99999,0,99999,1,-99,-99,-99,0,0,0,0,-99,9,0,2,1,6,99999,99999,-99,7,99999,99999,99999,99999,1,2,1,0,99999,0,99999,1,-99,-99,-99,-99,0,0,0,99999,9,1,0,-99,18,-99,0,0,0,0,0,0,1,0,1,1,1,0,0,1,0,0,3,8,4,2,1,5,7,6,7,6,4,2,1,8,4,6,1,-99,99999,99999,0,99999,8,0,9,99999,0,0,0,0,1,0,0,0,1,0,0,,99999,6,8,8,7,99999,1,43,4,105,99999,7,0,99999,,0,,0,1,0,,99999,0
260206_1528,185,subjects,1,1,92,0,1,0,0,1,0,1,0,0,6978c27699b03621e7f724f6,5,1,2,-1,52.6785714285714,0.030666748046875,-1,-1,0,99999,99999,0,99999,99999,0,1,0,99999,0,99999,99999,99999,205,10,3,1,99999,0,99999,1,-99,-99,-99,0,0,0,0,-99,9,0,1,1,6,99999,99999,-99,7,99999,99999,99999,99999,1,2,1,0,99999,0,99999,1,-99,-99,-99,-99,0,0,0,99999,9,1,0,-99,18,-99,1,1,1,1,1,1,1,1,0,0,0,0,0,0,0,0,1,3,2,7,5,8,6,4,3,2,5,4,8,4,5,8,1,0,99999,99999,1,99999,3,0,9,99999,1,1,0,0,0,0,0,0,0,0,1,The table flashed off to quickly for me to make a proper decision,99999,4,0,0,8,99999,1,26,5,45,99999,7,0,99999,,0,,0,4,0,,99999,0
260206_1528,187,subjects,1,1,93,0,1,0,0,1,0,1,0,0,69790f77a4b7b95f1f7a0929,5,1,2,-1,49.3151939655172,-0.0233347039473684,-1,-1,0,99999,99999,0,99999,99999,0,1,0,99999,0,99999,99999,99999,205,5,3,2,99999,0,99999,2,3,205,10,99999,99999,0,0,-99,9,0,1,1,4,99999,99999,-99,4,99999,99999,99999,99999,0,1,8,0,99999,0,99999,0,1,0,8,0,99999,0,99999,99999,9,1,0,-99,18,-99,1,0,1,0,1,0,1,0,0,0,0,0,0,0,0,0,1,2,7,8,4,3,5,6,3,5,4,2,8,2,8,6,1,-99,99999,99999,1,99999,5,0,8,99999,0,0,0,0,0,1,0,0,1,0,0,,99999,3,0,5,7,99999,1,19,2,25,99999,7,0,99999,,0,,0,2,670,,99999,0
260206_1528,189,subjects,1,1,94,0,1,0,0,1,0,1,0,0,663a28078139647b4663d09f,5,1,2,-1,52.0203744493392,-0.00273224043715847,-1,-1,0,99999,99999,0,99999,99999,0,1,0,99999,0,99999,99999,99999,205,10,3,1,99999,0,99999,1,-99,-99,-99,0,0,0,0,-99,9,0,2,1,9,99999,99999,-99,9,99999,99999,99999,99999,1,2,1,0,99999,0,99999,1,-99,-99,-99,-99,0,0,0,99999,9,1,0,-99,18,-99,1,0,1,0,1,1,0,0,0,0,0,0,0,0,0,0,5,1,3,8,4,7,6,2,8,5,2,4,8,4,6,7,1,-99,99999,99999,0,99999,5,1,8,99999,0,0,0,0,1,0,0,0,1,0,0,,99999,1,1,5,2,99999,1,33,5,65,99999,7,0,99999,,0,,0,1,235,,99999,0
260206_1528,191,subjects,1,1,95,0,1,0,0,1,0,0,1,0,5bd2034025db7b000178ad8a,5,1,2,-1,51.2571417839973,-0.00579701299252716,-1,-1,0,99999,99999,0,99999,99999,0,1,0,99999,0,99999,99999,99999,205,10,3,1,99999,0,99999,1,-99,-99,-99,0,0,0,0,-99,9,0,1,0,9,99999,99999,-99,8,99999,99999,99999,99999,1,2,1,0,99999,0,99999,1,-99,-99,-99,-99,0,0,0,99999,9,1,0,-99,18,-99,0,0,0,0,0,0,0,0,0,0,0,0,0,0,0,0,1,5,6,8,7,3,2,4,6,5,2,2,6,3,7,5,1,-99,99999,99999,0,99999,1,0,2,99999,0,0,0,0,1,0,0,0,0,0,1,It's more fun to choose it myself,99999,1,0,1,3,99999,0,67,3,25,99999,7,0,99999,,0,,0,2,235,"It was dun, thank you. There was an error in the explanation of Part 2. You mention that 50points equals £1.00. I thought that that was a mistake.",99999,0
260206_1528,193,subjects,1,1,96,0,1,0,0,1,0,0,1,0,5c4dae9a889752000156b1db,5,1,2,-1,49.518213090195,0.0217423872514204,-1,-1,0,99999,99999,0,99999,99999,0,1,0,99999,0,99999,99999,99999,205,10,3,2,99999,0,99999,1,-99,-99,-99,0,0,0,0,-99,9,0,2,1,7,99999,99999,-99,8,99999,99999,99999,99999,1,2,8,0,99999,0,99999,2,1,2,1,0,99999,0,99999,99999,9,1,0,-99,18,-99,1,1,0,1,0,0,1,1,0,0,1,0,0,0,0,0,1,4,3,7,2,5,6,8,6,4,5,4,4,1,5,4,1,-99,99999,99999,1,99999,6,1,7,99999,0,1,0,0,0,0,0,0,1,1,0,,99999,5,2,10,0,99999,1,60,4,-1,99999,7,0,99999,,0,,0,1,225,,99999,0
260206_1528,195,subjects,1,1,97,0,1,0,0,1,0,1,0,0,5da09f733c3367001a72dec6,5,1,2,-1,52.4971118299445,-0.0091809315286624,-1,-1,0,99999,99999,0,99999,99999,0,1,0,99999,0,99999,99999,99999,205,10,3,2,99999,0,99999,1,-99,-99,-99,0,0,0,0,-99,9,0,2,0,2,99999,99999,-99,8,99999,99999,99999,99999,1,1,1,0,99999,0,99999,2,1,2,1,0,99999,0,99999,99999,9,1,0,-99,18,-99,1,0,0,1,0,0,0,0,0,1,0,0,0,0,0,0,6,7,8,2,4,5,1,3,5,6,6,5,6,8,2,8,1,-99,99999,99999,0,99999,8,5,9,99999,1,0,0,0,0,0,0,0,0,0,0,,99999,1,7,7,5,99999,1,24,5,105,99999,7,0,99999,,0,,0,4,0,,99999,0
260206_1528,197,subjects,1,1,98,0,1,0,0,1,0,0,1,0,66bf4ec121654a498f9308ad,5,1,2,-1,49.2607759085808,-0.0144927536231884,-1,-1,0,99999,99999,0,99999,99999,0,1,0,99999,0,99999,99999,99999,205,10,3,2,99999,0,99999,1,-99,-99,-99,0,0,0,0,-99,9,0,2,1,6,99999,99999,-99,8,99999,99999,99999,99999,1,2,8,0,99999,0,99999,2,1,2,1,0,99999,0,99999,99999,9,1,0,-99,18,-99,0,0,0,0,0,0,0,0,0,0,0,0,0,0,0,0,3,8,1,7,6,4,5,2,7,4,3,3,5,5,5,3,1,-99,99999,99999,0,99999,4,2,2,99999,0,1,1,0,1,0,0,0,1,0,0,,99999,6,1,7,2,99999,1,30,4,45,99999,7,0,99999,,0,,0,6,0,,99999,0
260206_1528,199,subjects,1,1,99,0,1,0,0,1,0,0,1,0,5eda19fa68ef200309777c96,7,-1,-1,-1,-1,-1,-1,-1,0,99999,99999,54,0,0,0,0,0,0,0,0,0,0,-99,-99,-99,1,0,0,0,0,-99,-99,-99,0,0,0,1,-99,9,4,0,0,0,0,0,-99,-99,0,0,0,0,-99,-99,-99,-99,0,0,0,0,-99,-99,-99,-99,0,0,0,0,1,1,1,-99,0,1,0,0,0,0,0,0,0,0,0,0,0,0,0,0,0,0,0,0,0,0,0,0,0,0,0,0,0,0,0,0,0,0,0,0,0,0,-99,0,0,0,0,0,0,0,0,0,0,0,0,0,0,0,0,,0,0,0,0,0,0,0,0,0,0,0,-99,-99,0,,0,,0,5,-99,,0,0
260206_1528,199,subjects,1,1,99,0,1,0,0,1,1,0,1,0,5eda19fa68ef200309777c96,7,-1,-1,-1,-1,-1,-1,-1,0,99999,99999,54,0,0,0,0,0,0,0,0,0,0,-99,-99,-99,1,0,0,0,0,-99,-99,-99,0,0,0,1,-99,9,4,0,0,0,0,0,-99,-99,0,0,0,0,-99,-99,-99,-99,0,0,0,0,-99,-99,-99,-99,0,0,0,0,1,1,1,-99,0,1,0,0,0,0,0,0,0,0,0,0,0,0,0,0,0,0,0,0,0,0,0,0,0,0,0,0,0,0,0,0,0,0,0,0,0,0,-99,0,0,0,0,0,0,0,0,0,0,0,0,0,0,0,0,,0,0,0,0,0,0,0,0,0,0,0,-99,-99,0,,0,,0,1,-99,,0,0
260206_1528,201,subjects,1,1,100,0,1,0,0,1,0,0,1,0,5650c6709076880012ea78b8,5,1,2,-1,49.2253521126761,-0.00719424460431656,-1,-1,0,99999,99999,0,99999,99999,0,1,0,99999,0,99999,99999,99999,205,10,3,1,99999,0,99999,1,-99,-99,-99,0,0,0,0,-99,9,0,1,1,8,99999,99999,-99,8,99999,99999,99999,99999,1,2,1,0,99999,0,99999,1,-99,-99,-99,-99,0,0,0,99999,9,1,0,-99,18,-99,1,0,0,0,0,0,0,0,0,0,0,0,0,0,0,0,7,4,5,8,1,3,2,6,5,2,1,2,6,3,7,7,1,-99,99999,99999,0,99999,6,1,9,99999,1,1,0,1,0,0,0,0,1,0,0,,99999,4,1,2,7,99999,1,41,4,-1,99999,7,0,99999,,0,,0,6,0,,99999,0
260206_1528,203,subjects,1,1,101,0,1,0,0,1,0,1,0,0,65319856c26aa4496e7c1582,5,1,2,-1,51.3533834586466,0.00840336134453779,-1,-1,0,99999,99999,0,99999,99999,0,1,0,99999,0,99999,99999,99999,205,20,4,2,99999,0,99999,-99,4,205,10,99999,99999,0,0,-99,9,0,2,1,8,99999,99999,-99,9,99999,99999,99999,99999,1,1,8,0,99999,0,99999,0,1,1,8,0,99999,0,99999,99999,9,1,0,-99,18,-99,1,1,0,0,1,0,1,0,0,0,0,0,0,0,0,0,2,8,3,4,6,1,7,5,5,4,3,3,5,6,4,1,1,-99,99999,99999,0,99999,5,5,6,99999,1,0,0,0,1,0,1,0,0,0,0,,99999,2,2,7,1,99999,0,65,2,35,99999,6,0,99999,,0,,0,2,390,,99999,0
260206_1528,205,subjects,1,1,102,0,1,0,0,1,0,1,0,0,67d4773442ee746bb00b2542,5,1,2,-1,52.5220102163462,-0.0188432776409647,-1,-1,0,99999,99999,0,99999,99999,0,1,0,99999,0,99999,99999,99999,205,10,3,1,99999,0,99999,1,-99,-99,-99,0,0,0,0,-99,9,0,2,1,7,99999,99999,-99,9,99999,99999,99999,99999,1,2,1,0,99999,0,99999,1,-99,-99,-99,-99,0,0,0,99999,9,1,0,-99,18,-99,1,0,0,1,1,0,1,1,0,1,1,0,0,1,0,0,7,5,1,8,6,2,4,3,4,4,5,4,5,2,8,2,1,0,99999,99999,1,99999,5,1,8,99999,0,1,0,1,0,0,0,0,0,0,0,,99999,8,7,4,10,99999,1,47,5,45,99999,7,0,99999,,0,,0,6,235,,99999,0
260206_1528,207,subjects,1,1,103,0,1,0,0,1,0,0,1,0,5f25e860dd98342ce97e7403,5,1,2,-1,51.4989466292135,0.00523603723404253,-1,-1,0,99999,99999,0,99999,99999,0,1,0,99999,0,99999,99999,99999,205,5,3,2,99999,0,99999,-99,1,205,5,99999,99999,0,0,-99,9,0,2,1,7,99999,99999,-99,7,99999,99999,99999,99999,0,1,1,0,99999,0,99999,0,0,2,1,0,99999,0,99999,99999,9,1,0,-99,18,-99,0,1,0,0,0,0,0,0,0,0,0,0,0,0,0,0,7,6,2,4,1,3,5,8,4,5,7,6,4,7,2,6,1,-99,99999,99999,0,99999,6,2,3,99999,1,1,1,0,1,0,0,0,0,0,0,,99999,6,4,10,7,99999,1,31,4,105,99999,7,0,99999,,0,,0,4,0,It was easy to understand and complete - thank you,99999,0
260206_1528,209,subjects,1,1,104,0,1,0,0,1,0,1,0,0,5adc587be0feeb0001ca9d0a,5,1,2,-1,50.2011021205357,-0.0130438320878623,-1,-1,0,99999,99999,0,99999,99999,0,1,0,99999,0,99999,99999,99999,205,10,3,2,99999,0,99999,1,-99,-99,-99,0,0,0,0,-99,9,0,2,0,8,99999,99999,-99,6,99999,99999,99999,99999,1,1,1,0,99999,0,99999,0,1,2,8,0,99999,0,99999,99999,9,1,0,-99,18,-99,1,1,1,1,1,0,1,-1,0,0,0,0,0,0,0,0,2,4,5,7,3,1,8,6,5,8,8,4,2,8,4,-1,1,-99,99999,99999,1,99999,5,2,7,99999,0,1,0,0,0,0,0,0,0,0,0,,99999,2,5,9,10,99999,1,40,4,25,99999,7,0,99999,,0,,0,5,0,,99999,0
260206_1528,211,subjects,1,1,105,0,1,0,0,1,0,0,1,0,66fd3f6c93c24ecc119be354,5,1,2,-1,52.3157894736842,-0.00961538461538464,-1,-1,0,99999,99999,0,99999,99999,0,1,0,99999,0,99999,99999,99999,205,10,3,2,99999,0,99999,1,-99,-99,-99,0,0,0,0,-99,9,0,1,1,9,99999,99999,-99,10,99999,99999,99999,99999,1,1,1,0,99999,0,99999,2,1,2,1,0,99999,0,99999,99999,9,1,0,-99,18,-99,1,1,0,0,0,1,0,0,0,0,0,0,0,0,0,0,1,7,3,8,4,5,6,2,3,4,7,1,2,8,5,1,1,-99,99999,99999,0,99999,5,1,10,99999,0,1,0,0,1,0,0,0,1,0,0,,99999,6,1,1,5,99999,0,39,3,105,99999,7,0,99999,,0,,0,4,390,Thanks I enjoyed this study.,99999,0
260206_1528,213,subjects,1,1,106,0,1,0,0,1,0,0,1,0,5a9bcd3f1eda410001366c55,5,1,2,-1,49.9564651656937,0.00564088683197461,-1,-1,0,99999,99999,0,99999,99999,0,1,0,99999,0,99999,99999,99999,205,10,3,1,99999,0,99999,1,-99,-99,-99,0,0,0,0,-99,9,0,1,0,7,99999,99999,-99,6,99999,99999,99999,99999,1,2,1,0,99999,0,99999,1,-99,-99,-99,-99,0,0,0,99999,9,1,0,-99,18,-99,1,0,1,1,1,0,0,0,0,0,0,0,0,0,0,0,6,8,2,5,7,4,3,1,5,6,7,8,4,5,3,6,1,-99,99999,99999,0,99999,8,4,7,99999,0,1,1,0,0,0,0,0,0,0,0,,99999,7,6,8,9,99999,1,30,4,105,99999,7,0,99999,,0,,0,2,0,none,99999,0
260206_1528,215,subjects,1,1,107,0,1,0,0,1,0,0,1,0,60d075b6af3d46debaf3cfd8,5,1,2,-1,51.4205545774648,-0.00870028409090912,-1,-1,0,99999,99999,0,99999,99999,0,1,0,99999,0,99999,99999,99999,205,10,3,1,99999,0,99999,1,-99,-99,-99,0,0,0,0,-99,9,0,2,0,6,99999,99999,-99,7,99999,99999,99999,99999,1,2,1,0,99999,0,99999,1,-99,-99,-99,-99,0,0,0,99999,9,1,0,-99,18,-99,1,0,1,0,1,0,0,0,0,0,0,0,0,0,0,0,3,7,6,8,5,1,2,4,2,4,5,3,8,7,1,5,1,-99,99999,99999,0,99999,2,0,1,99999,0,0,0,0,1,0,0,0,1,0,0,,99999,3,1,0,0,99999,1,23,5,45,99999,7,0,99999,,0,,0,8,0,,99999,0
260206_1528,217,subjects,1,1,108,0,1,0,0,1,0,1,0,0,61377f1af63764011235d8a0,5,1,2,-1,52.8384647578984,0.0119999186197917,-1,-1,0,99999,99999,0,99999,99999,0,1,0,99999,0,99999,99999,99999,205,10,3,2,99999,0,99999,1,-99,-99,-99,0,0,0,0,-99,9,0,2,1,9,99999,99999,-99,8,99999,99999,99999,99999,1,1,8,0,99999,0,99999,0,1,2,8,0,99999,0,99999,99999,9,1,0,-99,18,-99,0,0,0,0,0,0,1,0,1,0,0,0,0,0,0,0,3,6,2,8,1,7,4,5,-1,1,2,6,6,4,8,8,1,-99,99999,99999,1,99999,5,1,7,99999,0,0,0,0,0,0,0,0,1,1,0,,99999,6,3,2,0,99999,0,64,6,35,99999,6,0,99999,,0,,0,6,220,,99999,0
260206_1528,219,subjects,1,1,109,0,1,0,0,1,0,0,1,0,66d339846ddb5871646d198c,5,1,2,-1,51.7835197029533,0.000719468370615983,-1,-1,0,99999,99999,0,99999,99999,0,1,0,99999,0,99999,99999,99999,205,10,3,1,99999,0,99999,1,-99,-99,-99,0,0,0,0,-99,9,0,2,0,6,99999,99999,-99,8,99999,99999,99999,99999,1,2,1,0,99999,0,99999,1,-99,-99,-99,-99,0,0,0,99999,9,1,0,-99,18,-99,1,0,1,0,1,1,0,0,0,0,0,0,0,0,0,0,4,1,7,2,8,3,5,6,4,5,4,7,4,7,5,6,1,-99,99999,99999,0,99999,5,0,8,99999,1,1,1,0,0,0,0,0,1,0,0,,99999,1,1,10,6,99999,0,57,2,15,99999,6,0,99999,,0,,0,2,205,,99999,0
260206_1528,221,subjects,1,1,110,0,1,0,0,1,0,1,0,0,6658c6c0577a9b481240fa30,5,1,2,-1,51.1023622047244,-0.00604838709677419,-1,-1,0,99999,99999,0,99999,99999,0,1,0,99999,0,99999,99999,99999,205,10,3,1,99999,0,99999,1,-99,-99,-99,0,0,0,0,-99,9,0,2,1,9,99999,99999,-99,9,99999,99999,99999,99999,1,2,1,0,99999,0,99999,1,-99,-99,-99,-99,0,0,0,99999,9,1,0,-99,18,-99,1,1,1,1,1,1,1,1,0,0,0,0,0,0,0,0,3,7,8,2,4,6,1,5,2,4,4,5,8,5,3,8,1,0,99999,99999,1,99999,0,0,8,99999,0,1,0,0,0,0,0,0,0,0,1,I didn't have enough time to properly assess each of the options myself,99999,6,3,7,5,99999,0,31,5,55,99999,7,0,99999,,0,,0,4,0,,99999,0
260206_1528,225,subjects,1,1,112,0,1,0,0,1,0,0,1,0,606c7412f636c4ffa572d333,5,1,2,-1,49.4008582746479,-0.00764860139860141,-1,-1,0,99999,99999,0,99999,99999,0,1,0,99999,0,99999,99999,99999,205,20,4,2,99999,0,99999,-99,2,205,10,99999,99999,0,0,-99,9,0,2,0,6,99999,99999,-99,8,99999,99999,99999,99999,0,1,8,5,99999,0,99999,0,1,1,8,10,99999,0,99999,99999,9,1,0,-99,18,-99,0,1,0,0,0,0,0,0,0,0,0,0,0,0,0,0,4,1,6,8,7,5,3,2,5,6,2,1,4,5,2,6,1,-99,99999,99999,0,99999,10,10,7,99999,1,1,0,1,1,0,1,0,0,0,0,,99999,6,6,6,4,99999,0,22,4,5,99999,5,1,99999,"I didnt use it, accidental click",99999,,0,4,0,,99999,0
260206_1528,227,subjects,1,1,113,0,1,0,0,1,0,0,1,0,60fb51c7493e3f8a4c82833b,5,1,2,-1,50.7399722572743,-0.026054669143562,-1,-1,0,99999,99999,0,99999,99999,0,1,0,99999,0,99999,99999,99999,205,10,3,2,99999,0,99999,1,-99,-99,-99,0,0,0,0,-99,9,0,2,0,3,99999,99999,-99,5,99999,99999,99999,99999,1,2,8,0,99999,0,99999,2,1,2,1,0,99999,0,99999,99999,9,1,0,-99,18,-99,1,1,1,1,1,1,1,1,0,0,0,0,0,0,0,0,5,4,3,6,8,2,7,1,4,8,2,4,8,5,5,3,1,0,99999,99999,1,99999,3,2,7,99999,0,1,0,0,0,0,0,0,1,1,0,,99999,7,2,0,4,99999,0,22,4,-1,99999,6,0,99999,,0,,0,1,0,,99999,0
260206_1528,229,subjects,1,1,114,0,1,0,0,1,0,0,1,0,60673bc6496cefa66a61e737,5,1,2,-1,50.2574823943662,0.0114483173076924,-1,-1,0,99999,99999,0,99999,99999,0,1,0,99999,0,99999,99999,99999,205,10,3,4,99999,0,99999,1,-99,-99,-99,0,0,0,0,-99,9,0,1,0,5,99999,99999,-99,5,99999,99999,99999,99999,1,2,8,0,99999,0,99999,2,1,2,1,0,99999,99999,99999,99999,9,1,0,-99,18,-99,1,1,1,1,1,0,1,0,0,0,0,0,0,0,0,0,4,8,5,7,3,1,6,2,4,4,8,4,7,2,5,5,1,-99,99999,99999,0,99999,8,1,2,99999,1,1,0,0,0,0,0,0,0,0,0,,99999,7,7,9,9,99999,0,35,4,45,99999,7,0,99999,,0,,0,8,0,,99999,0
260206_1528,231,subjects,1,1,115,0,1,0,0,1,0,1,0,0,6887a12b580572a4cf063538,5,1,2,-1,49.7830107717803,0.00282874474158656,-1,-1,0,99999,99999,0,99999,99999,0,1,0,99999,0,99999,99999,99999,205,10,3,2,99999,0,99999,1,-99,-99,-99,0,0,0,0,-99,9,0,2,1,5,99999,99999,-99,6,99999,99999,99999,99999,1,2,8,0,99999,0,99999,2,1,2,1,0,99999,0,99999,99999,9,1,0,-99,18,-99,1,1,0,0,0,0,0,0,0,0,0,0,0,0,0,0,6,4,3,8,1,2,7,5,5,8,6,2,5,3,6,1,1,-99,99999,99999,0,99999,8,2,2,99999,0,1,0,1,1,0,0,0,0,0,0,,99999,1,4,0,10,99999,1,36,5,105,99999,7,0,99999,,0,,0,2,0,,99999,0
260206_1528,233,subjects,1,1,116,0,1,0,0,1,0,1,0,0,614873a43b76bea1f97ee78f,5,1,2,-1,50.4563492063492,-0.00245105519014244,-1,-1,0,99999,99999,0,99999,99999,0,1,0,99999,0,99999,99999,99999,205,10,3,2,99999,0,99999,1,-99,-99,-99,0,0,0,0,-99,9,0,2,0,10,99999,99999,-99,10,99999,99999,99999,99999,1,2,8,0,99999,0,99999,0,1,1,8,0,99999,0,99999,99999,9,1,0,-99,18,-99,0,0,0,0,1,0,0,0,0,1,0,0,0,0,0,0,6,8,7,4,2,3,5,1,5,2,4,2,5,2,2,5,1,-99,99999,99999,0,99999,6,1,10,99999,0,1,1,1,1,0,0,0,1,0,0,,99999,10,3,9,8,99999,1,51,5,35,99999,1,0,99999,,0,,0,6,625,,99999,0
260206_1528,235,subjects,1,1,117,0,1,0,0,1,0,0,1,0,652942ba7a6bc3c9f6aa792d,5,1,2,-1,50.034774989298,-0.0191720278208493,-1,-1,0,99999,99999,0,99999,99999,0,1,0,99999,0,99999,99999,99999,205,10,3,2,99999,0,99999,1,-99,-99,-99,0,0,0,0,-99,9,0,1,0,9,99999,99999,-99,8,99999,99999,99999,99999,1,2,8,0,99999,0,99999,0,1,1,8,0,99999,0,99999,99999,9,1,0,-99,18,-99,0,0,0,0,0,0,0,0,1,0,0,0,0,0,0,0,7,1,6,4,8,5,3,2,3,6,6,2,4,8,7,4,1,-99,99999,99999,0,99999,0,0,2,99999,1,1,0,0,0,0,0,0,0,0,0,,99999,6,4,10,8,99999,1,40,6,55,99999,7,0,99999,,0,,0,1,0,,99999,0
260206_1528,237,subjects,1,1,118,0,1,0,0,1,0,1,0,0,5e31a3142c324c17ab9061d5,7,-1,-1,-1,-1,-1,-1,-1,0,99999,99999,47,0,0,0,0,0,0,0,0,0,0,-99,-99,-99,1,0,0,0,0,-99,-99,-99,0,0,0,1,-99,9,3,0,0,0,0,0,-99,-99,0,0,0,0,-99,-99,-99,-99,0,0,0,0,-99,-99,-99,-99,0,0,0,0,1,1,1,-99,0,1,0,0,0,0,0,0,0,0,0,0,0,0,0,0,0,0,0,0,0,0,0,0,0,0,0,0,0,0,0,0,0,0,0,0,0,0,-99,0,0,0,0,0,0,0,0,0,0,0,0,0,0,0,0,,0,0,0,0,0,0,0,0,0,0,0,-99,-99,0,,0,,0,5,-99,,0,0
260206_1528,237,subjects,1,1,118,0,1,0,0,1,1,1,0,0,5e31a3142c324c17ab9061d5,7,-1,-1,-1,-1,-1,-1,-1,0,99999,99999,47,0,0,0,0,0,0,0,0,0,0,-99,-99,-99,1,0,0,0,0,-99,-99,-99,0,0,0,1,-99,9,3,0,0,0,0,0,-99,-99,0,0,0,0,-99,-99,-99,-99,0,0,0,0,-99,-99,-99,-99,0,0,0,0,1,1,1,-99,0,1,0,0,0,0,0,0,0,0,0,0,0,0,0,0,0,0,0,0,0,0,0,0,0,0,0,0,0,0,0,0,0,0,0,0,0,0,-99,0,0,0,0,0,0,0,0,0,0,0,0,0,0,0,0,,0,0,0,0,0,0,0,0,0,0,0,-99,-99,0,,0,,0,2,-99,,0,0
260206_1528,239,subjects,1,1,119,0,1,0,0,1,0,0,1,0,6640e53eec06606709f75853,5,1,2,-1,52.6327547463038,0.00645508804941564,-1,-1,0,99999,99999,0,99999,99999,0,1,0,99999,0,99999,99999,99999,205,10,3,2,99999,0,99999,1,-99,-99,-99,0,0,0,0,-99,9,0,2,1,6,99999,99999,-99,7,99999,99999,99999,99999,1,2,8,0,99999,0,99999,0,1,0,1,0,99999,0,99999,99999,9,1,0,-99,18,-99,1,0,0,1,1,1,1,1,0,0,0,0,0,0,0,0,8,2,7,5,4,1,6,3,4,7,5,8,4,6,5,2,1,-99,99999,99999,1,99999,5,5,4,99999,0,1,0,0,0,0,0,0,1,0,0,,99999,4,0,9,7,99999,1,55,1,45,99999,7,0,99999,,0,,0,1,390,"No, thank you",99999,0
260206_1528,241,subjects,1,1,120,0,1,0,0,1,0,1,0,0,56abcb46f209e0000adab961,5,1,2,-1,51.2870903454384,-0.00290697674418605,-1,-1,0,99999,99999,0,99999,99999,0,1,0,99999,0,99999,99999,99999,205,10,3,1,99999,0,99999,1,-99,-99,-99,0,0,0,0,-99,9,0,1,1,10,99999,99999,-99,9,99999,99999,99999,99999,1,2,1,0,99999,0,99999,1,-99,-99,-99,-99,0,0,0,99999,9,1,0,-99,18,-99,1,1,1,1,1,1,1,1,0,0,0,0,0,0,0,0,4,7,5,3,1,2,8,6,8,4,8,2,3,5,4,5,1,0,99999,99999,1,99999,0,0,0,99999,1,1,0,0,1,1,0,0,0,1,0,,99999,1,0,10,1,99999,1,65,4,15,99999,7,0,99999,,0,,0,1,800,,99999,0
260206_1528,245,subjects,1,1,122,0,1,0,0,1,0,0,1,0,58bef6fd31de840001e84ba0,5,1,2,-1,54.0553337971684,0.0183045492006865,-1,-1,0,99999,99999,0,99999,99999,0,1,0,99999,0,99999,99999,99999,205,10,3,2,99999,0,99999,1,-99,-99,-99,0,0,0,0,-99,9,0,1,0,9,99999,99999,-99,9,99999,99999,99999,99999,1,1,1,0,99999,0,99999,0,1,0,1,0,99999,0,99999,99999,9,1,0,-99,18,-99,1,0,1,1,1,1,1,1,0,0,0,0,0,0,0,0,8,5,2,4,6,3,1,7,4,5,7,4,5,7,6,4,1,-99,99999,99999,1,99999,0,0,0,99999,0,1,0,0,1,0,0,0,1,1,0,,99999,1,2,10,10,99999,0,41,3,25,99999,7,0,99999,,0,,0,7,225,,99999,0
260206_1528,247,subjects,1,1,123,0,1,0,0,1,0,0,1,0,63d53d53a7a7b0379ba289cf,5,1,2,-1,50.5662128712871,0,-1,-1,0,99999,99999,0,99999,99999,0,1,0,99999,0,99999,99999,99999,205,10,3,1,99999,0,99999,1,-99,-99,-99,0,0,0,0,-99,9,0,1,0,8,99999,99999,-99,9,99999,99999,99999,99999,1,2,1,0,99999,0,99999,1,-99,-99,-99,-99,0,0,0,99999,9,1,0,-99,18,-99,1,0,1,1,1,1,1,0,0,0,0,0,0,0,0,0,8,7,2,3,1,4,6,5,4,6,7,2,6,8,5,5,1,-99,99999,99999,1,99999,2,1,10,99999,0,1,0,0,0,0,0,0,0,0,1,it was very similar to my choices ,99999,8,5,8,8,99999,0,47,3,35,99999,7,0,99999,,0,,0,3,255,all good nice study ,99999,0
260206_1528,251,subjects,1,1,125,0,1,0,0,1,0,0,1,0,65df5233d304ddf8f514c0f4,5,1,2,-1,55.6716417910448,0.00775193798449614,-1,-1,0,99999,99999,0,99999,99999,0,1,0,99999,0,99999,99999,99999,205,10,3,1,99999,0,99999,1,-99,-99,-99,0,0,0,0,-99,9,0,2,0,6,99999,99999,-99,5,99999,99999,99999,99999,1,2,1,0,99999,0,99999,1,-99,-99,-99,-99,0,0,0,99999,9,1,0,-99,18,-99,1,1,1,1,1,1,1,1,0,0,0,0,0,0,0,0,8,7,3,2,4,6,5,1,8,4,7,7,8,5,8,3,1,0,99999,99999,1,99999,5,4,6,99999,0,0,0,0,0,0,0,0,0,1,0,,99999,6,1,5,7,99999,0,42,1,65,99999,7,0,99999,,0,,0,3,230,,99999,0
260206_1528,253,subjects,1,1,126,0,1,0,0,1,0,0,1,0,60ee998ece5d505f67377c0b,5,1,2,-1,50.5597014925373,0.00954786137719854,-1,-1,0,99999,99999,0,99999,99999,0,1,0,99999,0,99999,99999,99999,205,10,1,2,99999,0,99999,-99,2,205,10,99999,99999,0,0,-99,9,0,1,1,4,99999,99999,-99,7,99999,99999,99999,99999,1,1,8,0,99999,0,99999,2,1,2,1,0,99999,0,99999,99999,9,1,0,-99,18,-99,1,0,0,1,1,1,1,1,0,0,0,0,0,0,0,0,6,1,7,4,8,3,5,2,5,5,4,8,4,2,8,7,1,-99,99999,99999,0,99999,7,3,8,99999,0,1,0,0,0,0,0,0,0,0,0,,99999,2,3,9,6,99999,0,40,5,55,99999,7,0,99999,,0,,0,2,225,,99999,0
260206_1528,255,subjects,1,1,127,0,1,0,0,1,0,1,0,0,665ba5fad0a8c603ab8b5242,5,1,2,-1,52.5396825396826,-0.0736196319018405,-1,-1,0,99999,99999,0,99999,99999,0,1,0,99999,0,99999,99999,99999,205,10,1,1,99999,0,99999,2,3,205,10,99999,99999,0,0,-99,9,0,1,0,10,99999,99999,-99,10,99999,99999,99999,99999,1,2,1,0,99999,0,99999,1,-99,-99,-99,-99,0,0,0,99999,9,1,0,-99,18,-99,1,0,1,0,0,1,1,1,0,0,0,0,0,0,0,0,4,8,1,2,5,6,3,7,8,4,3,7,5,5,2,4,1,-99,99999,99999,1,99999,10,0,10,99999,1,0,0,0,0,0,0,0,0,0,0,,99999,0,4,10,10,99999,1,28,4,55,99999,7,0,99999,,0,,0,5,0,,99999,0
260206_1528,257,subjects,1,1,128,0,1,0,0,1,0,1,0,0,559bbbdafdf99b7ce19d5b3d,5,1,2,-1,52.3416802572356,0.0381939227764423,-1,-1,0,99999,99999,0,99999,99999,0,1,0,99999,0,99999,99999,99999,205,10,3,2,99999,0,99999,1,-99,-99,-99,0,0,0,0,-99,9,0,1,1,5,99999,99999,-99,7,99999,99999,99999,99999,1,1,1,0,99999,0,99999,2,1,2,1,0,99999,0,99999,99999,9,1,0,-99,18,-99,1,1,1,1,1,0,1,1,0,0,0,0,0,0,0,0,5,4,1,8,3,7,6,2,8,8,3,4,2,3,5,5,1,-99,99999,99999,1,99999,2,1,7,99999,0,1,0,0,0,0,0,0,1,0,0,,99999,9,7,10,8,99999,0,41,3,35,99999,7,0,99999,,0,,0,5,0,I really enjoyed the task. Thanks.,99999,0
260206_1528,259,subjects,1,1,129,0,1,0,0,1,0,0,1,0,5a1dda5480acd8000104a12b,5,1,2,-1,51.1480960330448,-0.0190053046504153,-1,-1,0,99999,99999,0,99999,99999,0,1,0,99999,0,99999,99999,99999,205,10,3,1,99999,0,99999,1,-99,-99,-99,0,0,0,0,-99,9,0,2,0,2,99999,99999,-99,8,99999,99999,99999,99999,1,2,1,0,99999,0,99999,1,-99,-99,-99,-99,0,0,0,99999,9,1,0,-99,18,-99,0,0,0,1,1,1,1,1,0,0,0,0,0,0,0,0,8,6,4,3,2,7,1,5,6,1,3,7,5,4,6,8,1,-99,99999,99999,1,99999,0,0,7,99999,0,0,0,0,0,0,0,0,0,0,1,I didn't have enough time too analyse the numbers,99999,0,0,3,7,99999,1,32,1,35,99999,6,0,99999,,0,,0,7,225,,99999,0
260206_1528,261,subjects,1,1,130,0,1,0,0,1,0,0,1,0,66fd4b51cb041accd82a7740,5,1,2,-1,50.3157894736842,-0.014367816091954,-1,-1,0,99999,99999,0,99999,99999,0,1,0,99999,0,99999,99999,99999,205,10,3,2,99999,0,99999,1,-99,-99,-99,0,0,0,0,-99,9,0,2,0,9,99999,99999,-99,10,99999,99999,99999,99999,1,2,8,0,99999,0,99999,0,1,1,8,0,99999,0,99999,99999,9,1,0,-99,18,-99,1,1,1,0,0,0,0,0,0,0,0,0,1,0,0,0,7,3,4,1,5,2,6,8,4,7,4,6,8,7,5,4,1,-99,99999,99999,0,99999,5,2,9,99999,0,1,0,1,1,0,0,0,0,0,0,,99999,5,7,8,2,99999,0,66,3,35,99999,7,0,99999,,0,,0,2,0,Fun,99999,0
260206_1528,263,subjects,1,1,131,0,1,0,0,1,0,0,1,0,6266aba991affe86ae58ce07,5,1,2,-1,50.948275862069,-0.0128205128205128,-1,-1,0,99999,99999,0,99999,99999,0,1,0,99999,0,99999,99999,99999,205,10,3,2,99999,0,99999,1,-99,-99,-99,0,0,0,0,-99,9,0,1,1,7,99999,99999,-99,8,99999,99999,99999,99999,0,2,8,0,99999,0,99999,0,0,1,1,0,99999,0,99999,99999,9,1,0,-99,18,-99,1,1,0,0,0,1,0,0,0,0,1,1,0,0,1,0,4,2,7,1,6,5,3,8,4,7,4,4,6,8,6,4,1,-99,99999,99999,1,99999,6,4,8,99999,1,1,0,0,1,0,1,0,1,0,0,,99999,7,1,5,1,99999,0,59,1,25,99999,7,0,99999,,0,,0,8,0,Very enjoyable,99999,0
260206_1528,267,subjects,1,1,133,0,1,0,0,1,0,1,0,0,678ce1ebd56c85701ebce209,5,1,2,-1,49.7894736842105,-0.00287356321839083,-1,-1,0,99999,99999,0,99999,99999,0,1,0,99999,0,99999,99999,99999,205,10,3,2,99999,99999,99999,1,-99,-99,-99,0,0,0,0,-99,9,0,1,1,9,99999,99999,-99,9,99999,99999,99999,99999,1,1,8,0,99999,0,99999,0,0,2,8,0,99999,0,99999,99999,9,1,0,-99,18,-99,0,1,0,0,0,1,0,0,1,0,0,0,0,0,0,0,8,2,1,3,6,4,5,7,2,5,4,7,5,8,8,6,1,-99,99999,99999,0,99999,7,2,1,99999,1,1,0,0,1,0,1,0,1,0,0,,99999,3,4,3,8,99999,0,49,4,45,99999,7,0,99999,,0,,0,5,265,none but I really enjoyed it thanks,99999,0
260206_1528,269,subjects,1,1,134,0,1,0,0,1,0,0,1,0,6137e32367aae15b0156bd7e,5,1,2,-1,51.0649667872061,-0.0514054498752626,-1,-1,0,99999,99999,0,99999,99999,0,1,0,99999,0,99999,99999,99999,205,10,3,2,99999,0,99999,1,-99,-99,-99,0,0,0,0,-99,9,0,1,0,7,99999,99999,-99,9,99999,99999,99999,99999,0,2,8,0,99999,0,99999,0,0,2,1,0,99999,0,99999,99999,9,1,0,-99,18,-99,0,0,0,0,0,0,0,1,0,0,0,0,0,0,0,0,5,2,1,4,6,3,7,8,2,4,2,4,6,1,4,4,1,-99,99999,99999,1,99999,6,1,8,99999,0,0,0,0,0,1,0,0,1,0,0,,99999,6,2,10,7,99999,0,36,4,55,99999,7,0,99999,,0,,0,5,265,none,99999,0
260206_1528,271,subjects,1,1,135,0,1,0,0,1,0,0,1,0,61504a407a08a977b6ccf929,5,1,2,-1,53.0494505494506,0.00375893958529139,-1,-1,0,99999,99999,0,99999,99999,0,1,0,99999,0,99999,99999,99999,205,10,3,1,99999,0,99999,1,-99,-99,-99,0,0,0,0,-99,9,0,2,0,2,99999,99999,-99,8,99999,99999,99999,99999,1,2,1,0,99999,0,99999,1,-99,-99,-99,-99,0,0,0,99999,9,1,0,-99,18,-99,0,0,0,0,0,0,0,0,0,0,0,0,0,0,0,0,3,8,1,4,6,7,2,5,1,6,3,8,1,7,5,4,1,-99,99999,99999,0,99999,8,2,5,99999,0,0,0,0,0,0,0,0,1,0,1,I am having fun with this and enjoy the risk,99999,8,0,1,0,99999,0.5,27,5,5,99999,7,0,99999,,0,,0,8,0,,99999,0
260206_1528,275,subjects,1,1,137,0,1,0,0,1,0,0,1,0,58c1c33427e23a0001b4ea0b,5,1,2,-1,52.4430963505698,-0.00289850649626361,-1,-1,0,99999,99999,0,99999,99999,0,1,0,99999,0,99999,99999,99999,205,10,3,1,99999,0,99999,1,-99,-99,-99,0,0,0,0,-99,9,0,2,0,8,99999,99999,-99,8,99999,99999,99999,99999,1,2,1,0,99999,0,99999,1,-99,-99,-99,-99,0,0,0,99999,9,1,0,-99,18,-99,0,1,0,0,0,1,1,0,0,0,0,0,0,0,0,0,1,7,3,6,5,8,4,2,6,4,2,1,5,4,4,7,1,-99,99999,99999,1,99999,4,2,6,99999,0,1,0,0,0,0,0,0,0,0,0,,99999,1,0,0,6,99999,1,56,1,35,99999,7,0,99999,,0,,0,3,0,enjoyable study,99999,0
260206_1528,277,subjects,1,1,138,0,1,0,0,1,0,0,1,0,642aff87ea9fb23585fc5ee3,5,1,2,-1,50.6459251101322,-0.00549450549450548,-1,-1,0,99999,99999,0,99999,99999,0,1,0,99999,0,99999,99999,99999,205,10,3,1,99999,0,99999,1,-99,-99,-99,0,0,0,0,-99,9,0,1,1,5,99999,99999,-99,7,99999,99999,99999,99999,1,2,1,0,99999,0,99999,1,-99,-99,-99,-99,0,0,0,99999,9,1,1,-99,18,-99,0,0,1,1,0,-1,1,0,1,0,0,0,0,0,0,1,5,2,3,7,6,1,8,4,8,3,2,4,5,6,4,2,1,-99,99999,99999,0,99999,6,0,3,99999,0,1,1,1,1,0,0,0,1,0,0,,99999,2,5,7,9,99999,1,38,4,65,99999,7,0,99999,,0,,0,1,205,,99999,0
260206_1528,279,subjects,1,1,139,0,1,0,0,1,0,1,0,0,6100906e671b8294f9ea93d8,5,1,2,-1,50.8519361295753,0.0136365023526278,-1,-1,0,99999,99999,0,99999,99999,0,1,0,99999,0,99999,99999,99999,205,10,1,2,99999,0,99999,2,3,205,10,99999,99999,0,0,-99,9,0,2,0,10,99999,99999,-99,10,99999,99999,99999,99999,1,1,1,0,99999,0,99999,0,0,1,1,0,99999,0,99999,99999,9,1,0,-99,18,-99,0,0,0,0,0,0,1,1,1,0,0,0,1,1,0,0,5,8,2,6,4,7,1,3,5,2,4,2,4,6,3,2,1,-99,99999,99999,1,99999,7,3,6,99999,0,0,0,0,0,0,0,0,0,0,1,Thought the computer would be fun.,99999,8,6,5,9,99999,1,31,5,35,99999,7,0,99999,,0,,0,1,235,None thank you,99999,0
260206_1528,281,subjects,1,1,140,0,1,0,0,1,0,1,0,0,6665e9f9b49082f6458c687d,7,-1,-1,-1,-1,-1,-1,-1,0,99999,99999,50,0,0,0,0,0,0,0,0,0,0,-99,-99,-99,1,0,0,0,0,-99,-99,-99,0,0,0,1,-99,9,1,0,0,0,0,0,-99,-99,0,0,0,0,-99,-99,-99,-99,0,0,0,0,-99,-99,-99,-99,0,0,0,0,1,1,1,-99,0,1,0,0,0,0,0,0,0,0,0,0,0,0,0,0,0,0,0,0,0,0,0,0,0,0,0,0,0,0,0,0,0,0,0,0,0,0,-99,0,0,0,0,0,0,0,0,0,0,0,0,0,0,0,0,,0,0,0,0,0,0,0,0,0,0,0,-99,-99,0,,0,,0,7,-99,,0,0
260206_1528,281,subjects,1,1,140,0,1,0,0,1,1,1,0,0,6665e9f9b49082f6458c687d,7,-1,-1,-1,-1,-1,-1,-1,0,99999,99999,50,0,0,0,0,0,0,0,0,0,0,-99,-99,-99,1,0,0,0,0,-99,-99,-99,0,0,0,1,-99,9,1,0,0,0,0,0,-99,-99,0,0,0,0,-99,-99,-99,-99,0,0,0,0,-99,-99,-99,-99,0,0,0,0,1,1,1,-99,0,1,0,0,0,0,0,0,0,0,0,0,0,0,0,0,0,0,0,0,0,0,0,0,0,0,0,0,0,0,0,0,0,0,0,0,0,0,-99,0,0,0,0,0,0,0,0,0,0,0,0,0,0,0,0,,0,0,0,0,0,0,0,0,0,0,0,-99,-99,0,,0,,0,2,-99,,0,0
260206_1528,283,subjects,1,1,141,0,1,0,0,1,0,0,1,0,5c0430c71a20110001e9b05a,5,1,2,-1,51.7993551587302,-0.0123291015625,-1,-1,0,99999,99999,0,99999,99999,0,1,0,99999,0,99999,99999,99999,205,10,3,2,99999,0,99999,1,-99,-99,-99,0,0,0,0,-99,9,0,2,1,7,99999,99999,-99,9,99999,99999,99999,99999,1,2,8,0,99999,0,99999,2,1,2,1,0,99999,0,99999,99999,9,1,0,-99,18,-99,1,1,1,0,1,0,1,0,0,0,0,0,0,0,0,0,6,4,7,8,1,2,5,3,5,8,4,6,6,2,8,5,1,-99,99999,99999,1,99999,4,0,9,99999,1,1,1,0,1,0,0,1,0,1,0,none,99999,7,5,8,9,99999,1,43,2,95,99999,7,0,99999,,0,,0,6,0,,99999,0
260206_1528,285,subjects,1,1,142,0,1,0,0,1,0,1,0,0,676055469b245b53e81358d0,5,1,2,-1,54.3157894736842,0.00252525252525249,-1,-1,0,99999,99999,0,99999,99999,0,1,0,99999,0,99999,99999,99999,205,10,3,2,99999,0,99999,1,-99,-99,-99,0,0,0,0,-99,9,0,2,0,7,99999,99999,-99,8,99999,99999,99999,99999,1,0,1,0,99999,0,99999,2,1,2,1,0,99999,0,99999,99999,9,1,0,-99,18,-99,1,1,1,1,1,1,1,1,0,0,0,0,0,0,0,0,7,8,5,1,4,3,6,2,4,4,8,3,8,2,5,5,1,0,99999,99999,1,99999,3,1,7,99999,0,1,0,0,0,0,1,0,1,1,0,,99999,7,8,6,9,99999,0,21,2,65,99999,7,0,99999,,0,,0,4,525,no,99999,0
260206_1528,287,subjects,1,1,143,0,1,0,0,1,0,0,1,0,63174af7d57182f9bf90c094,5,1,2,-1,56.8472511375343,0.00228998315243323,-1,-1,0,99999,99999,0,99999,99999,0,1,0,99999,0,99999,99999,99999,205,10,3,2,99999,0,99999,1,-99,-99,-99,0,0,0,0,-99,9,0,2,1,5,99999,99999,-99,7,99999,99999,99999,99999,1,2,8,0,99999,0,99999,2,1,2,1,0,99999,0,99999,99999,9,1,0,-99,18,-99,0,0,0,0,0,0,0,0,1,0,0,0,0,0,0,0,6,1,8,2,4,7,3,5,4,8,5,1,8,5,8,8,1,-99,99999,99999,0,99999,2,1,6,99999,1,0,0,0,1,0,0,0,0,0,0,,99999,8,8,9,8,99999,0,45,4,75,99999,7,0,99999,,0,,0,5,0,,99999,0
260206_1528,289,subjects,1,1,144,0,1,0,0,1,0,1,0,0,5f04a092b712400db27ef0f3,5,1,2,-1,53.6745742843041,0.0216200086805556,-1,-1,0,99999,99999,0,99999,99999,0,1,0,99999,0,99999,99999,99999,205,10,3,2,99999,0,99999,1,-99,-99,-99,0,0,0,0,-99,9,0,2,0,6,99999,99999,-99,8,99999,99999,99999,99999,1,2,8,0,99999,0,99999,2,1,2,1,0,99999,0,99999,99999,9,1,0,-99,18,-99,0,1,0,1,0,1,0,1,0,0,0,0,0,0,0,0,2,5,7,3,4,8,1,6,7,8,5,2,7,4,1,5,1,-99,99999,99999,0,99999,3,3,4,99999,0,1,0,1,1,0,0,0,0,0,0,,99999,6,5,3,7,99999,1,27,4,25,99999,7,0,99999,,0,,0,4,625,,99999,0
260206_1528,291,subjects,1,1,145,0,1,0,0,1,0,0,1,0,67448035804444614abdcc6c,5,1,2,-1,48.8421052631579,0.0165745856353591,-1,-1,0,99999,99999,0,99999,99999,0,1,0,99999,0,99999,99999,99999,205,10,3,1,99999,0,99999,1,-99,-99,-99,0,0,0,0,-99,9,0,2,0,9,99999,99999,-99,8,99999,99999,99999,99999,1,2,1,0,99999,0,99999,1,-99,-99,-99,-99,0,0,0,99999,9,1,0,-99,18,-99,0,1,1,1,1,1,0,0,0,0,0,0,0,0,0,0,1,6,4,7,2,8,3,5,4,5,4,4,7,4,4,5,1,-99,99999,99999,1,99999,3,3,8,99999,0,1,0,0,0,0,0,0,0,0,0,,99999,8,9,9,10,99999,0,31,4,35,99999,7,0,99999,,0,,0,1,225,,99999,0
260206_1528,293,subjects,1,1,146,0,1,0,0,1,0,0,1,0,607ca741fd54ce0bd3846328,5,1,2,-1,51.2631578947368,0.00287356321839083,-1,-1,0,99999,99999,0,99999,99999,0,1,0,99999,0,99999,99999,99999,205,10,3,1,99999,0,99999,1,-99,-99,-99,0,0,0,0,-99,9,0,1,0,4,99999,99999,-99,7,99999,99999,99999,99999,1,2,1,0,99999,0,99999,1,-99,-99,-99,-99,0,0,0,99999,9,1,0,-99,18,-99,1,0,1,-1,0,0,1,1,0,0,0,0,0,0,0,0,4,6,2,7,1,3,8,5,8,8,7,4,7,4,4,8,1,-99,99999,99999,1,99999,3,0,6,99999,0,1,0,0,0,0,0,0,0,0,0,,99999,4,3,10,10,99999,1,33,4,45,99999,7,0,99999,,0,,0,7,390,N/A,99999,0
260206_1528,295,subjects,1,1,147,0,1,0,0,1,0,1,0,0,5c97abbfae71890001f15e08,5,1,2,-1,51.2560471754808,-0.00381725981035308,-1,-1,0,99999,99999,0,99999,99999,0,1,0,99999,0,99999,99999,99999,205,10,3,2,99999,0,99999,1,-99,-99,-99,0,0,0,0,-99,9,0,2,1,8,99999,99999,-99,9,99999,99999,99999,99999,1,2,8,0,99999,0,99999,0,0,0,-99,-99,99999,0,99999,99999,9,1,0,-99,18,-99,1,0,1,1,0,1,1,0,0,0,0,0,0,0,0,0,1,4,2,5,3,6,8,7,3,3,5,8,1,5,4,5,1,-99,99999,99999,1,99999,4,1,5,99999,0,0,0,0,1,0,0,0,0,0,0,,99999,8,5,9,6,99999,1,44,4,75,99999,7,0,99999,,0,,0,2,0,,99999,0
260206_1528,297,subjects,1,1,148,0,1,0,0,1,0,0,1,0,67838f3e71616a9dcc042173,5,1,2,-1,49.9974639776247,0.0157658344990498,-1,-1,0,99999,99999,0,99999,99999,0,1,0,99999,0,99999,99999,99999,205,5,3,2,99999,0,99999,2,3,205,10,99999,99999,0,0,-99,9,0,1,1,8,99999,99999,-99,8,99999,99999,99999,99999,1,1,8,0,99999,0,99999,0,1,2,8,0,99999,0,99999,99999,9,1,1,-99,18,-99,1,1,1,0,0,1,0,0,0,0,0,0,0,0,0,1,2,4,5,3,6,1,8,7,7,8,4,6,5,6,2,3,1,-99,99999,99999,0,99999,5,4,2,99999,0,1,1,0,1,0,0,0,1,0,0,,99999,5,6,10,8,99999,1,57,1,25,99999,7,0,99999,,0,,0,2,890,,99999,0
260206_1528,299,subjects,1,1,149,0,1,0,0,1,0,0,1,0,6043a1dc4c33ef37c64f0812,5,1,2,-1,57.5675675675676,0,-1,-1,0,99999,99999,0,99999,99999,0,1,0,99999,0,99999,99999,99999,205,10,3,2,99999,0,99999,1,-99,-99,-99,0,0,0,0,-99,9,0,1,0,8,99999,99999,-99,8,99999,99999,99999,99999,1,1,1,0,99999,0,99999,2,1,2,1,0,99999,0,99999,99999,9,1,0,-99,18,-99,1,1,1,1,1,1,0,1,0,0,0,0,0,0,0,0,2,8,1,7,6,5,3,4,7,4,6,4,5,8,5,4,1,-99,99999,99999,1,99999,4,1,6,99999,1,1,0,0,0,0,0,0,1,0,0,,99999,5,1,9,8,99999,0,39,1,75,99999,7,0,99999,,0,,0,8,390,,99999,0
260206_1528,301,subjects,1,1,150,0,1,0,0,1,0,0,1,0,672c99775b51436252e1b231,5,1,2,-1,47.9486484548804,-0.005,-1,-1,0,99999,99999,0,99999,99999,0,1,0,99999,0,99999,99999,99999,525,10,1,1,99999,0,99999,-99,3,525,10,99999,99999,0,0,-99,9,0,2,0,7,99999,99999,-99,7,99999,99999,99999,99999,1,2,1,0,99999,0,99999,1,-99,-99,-99,-99,0,0,0,99999,9,1,0,-99,18,-99,-1,0,0,0,0,0,0,0,0,1,0,0,0,0,0,0,4,7,6,2,8,5,1,3,4,2,2,2,6,2,4,4,1,-99,99999,99999,0,99999,3,1,6,99999,1,1,1,0,1,0,0,0,1,0,0,,99999,6,3,5,7,99999,0,38,5,75,99999,6,0,99999,,0,,0,6,205,"great study, i will love to do more of the study.",99999,0
260206_1528,305,subjects,1,1,152,0,1,0,0,1,0,1,0,0,60dca45abca3eb229bafdedf,5,1,2,-1,51.9848033977005,-0.00777895230773495,-1,-1,0,99999,99999,0,99999,99999,0,1,0,99999,0,99999,99999,99999,205,10,1,2,99999,0,99999,-99,2,205,10,99999,99999,0,0,-99,9,0,2,1,3,99999,99999,-99,5,99999,99999,99999,99999,1,2,8,0,99999,0,99999,0,1,1,8,0,99999,0,99999,99999,9,1,0,-99,18,-99,1,1,1,1,0,0,0,1,0,0,0,0,1,0,0,0,5,4,3,7,8,1,2,6,8,8,2,4,4,5,3,5,1,-99,99999,99999,0,99999,3,1,6,99999,0,0,0,0,1,1,0,0,0,0,0,,99999,6,3,4,4,99999,0,38,4,55,99999,7,0,99999,,0,,0,5,390,none,99999,0
260206_1528,307,subjects,1,1,153,0,1,0,0,1,0,1,0,0,56153d5e7ffc8a000a811ba8,5,1,2,-1,50.7462686567164,-0.0479452054794521,-1,-1,0,99999,99999,0,99999,99999,0,1,0,99999,0,99999,99999,99999,205,10,3,2,99999,0,99999,1,-99,-99,-99,0,0,0,0,-99,9,0,2,1,8,99999,99999,-99,8,99999,99999,99999,99999,1,1,1,0,99999,0,99999,0,0,1,8,0,99999,0,99999,99999,9,1,0,-99,18,-99,1,0,0,1,1,1,0,0,0,0,0,0,0,0,0,0,7,5,4,1,8,6,3,2,4,5,5,3,4,5,8,1,1,-99,99999,99999,1,99999,5,2,5,99999,1,1,0,0,0,1,1,0,0,0,0,,99999,2,0,3,1,99999,1,43,3,35,99999,7,0,99999,,0,,0,4,525,n/a,99999,0
260206_1528,309,subjects,1,1,154,0,1,0,0,1,0,1,0,0,5fc4dd560975a70009b9abe2,5,1,2,-1,47.9527559055118,-0.0141129032258064,-1,-1,0,99999,99999,0,99999,99999,0,1,0,99999,0,99999,99999,99999,205,10,3,2,99999,0,99999,1,-99,-99,-99,0,0,0,0,-99,9,0,1,0,7,99999,99999,-99,8,99999,99999,99999,99999,1,1,8,0,99999,0,99999,0,1,2,8,0,99999,0,99999,99999,9,1,0,-99,18,-99,1,1,1,1,1,1,1,1,0,0,0,0,0,0,0,0,4,7,3,8,5,6,2,1,8,4,2,4,8,5,5,3,1,0,99999,99999,1,99999,2,0,4,99999,1,1,0,0,0,0,1,0,1,1,0,,99999,3,0,3,9,99999,0,43,1,15,99999,7,0,99999,,0,,0,3,525,,99999,0
260206_1528,311,subjects,1,1,155,0,1,0,0,1,0,0,1,0,5d542c3a5af5900019bc80c4,5,1,2,-1,51.1741863905326,-0.00231799450549453,-1,-1,0,99999,99999,0,99999,99999,0,1,0,99999,0,99999,99999,99999,205,10,3,2,99999,0,99999,1,-99,-99,-99,0,0,0,0,-99,9,0,2,1,8,99999,99999,-99,8,99999,99999,99999,99999,1,1,1,0,99999,0,99999,2,1,2,1,0,99999,0,99999,99999,9,1,0,-99,18,-99,1,1,1,1,1,1,1,1,0,0,0,0,0,0,0,0,6,5,1,2,7,4,8,3,5,8,6,7,4,4,4,7,1,0,99999,99999,1,99999,0,0,0,99999,0,1,0,0,0,0,0,0,0,0,1,there wasn't enough time to choose properly on my own,99999,8,8,10,7,99999,1,51,4,25,99999,7,0,99999,,0,,0,4,235,just that it was interesting to do!,99999,0
260206_1528,313,subjects,1,1,156,0,1,0,0,1,0,0,1,0,672b24390a9c197eb61f2f72,5,1,2,-1,51.467032967033,-0.0188404027966486,-1,-1,0,99999,99999,0,99999,99999,0,1,0,99999,0,99999,99999,99999,205,10,3,2,99999,0,99999,1,-99,-99,-99,0,0,0,0,-99,9,0,2,1,10,99999,99999,-99,10,99999,99999,99999,99999,1,1,1,0,99999,0,99999,2,1,2,1,0,99999,0,99999,99999,9,1,0,-99,18,-99,0,0,0,0,0,0,0,0,0,0,0,0,0,0,0,0,2,5,3,1,6,8,7,4,7,5,7,4,5,4,6,2,1,-99,99999,99999,0,99999,2,0,5,99999,0,1,0,1,0,0,0,0,1,0,0,,99999,1,6,9,7,99999,0,54,1,25,99999,7,0,99999,,0,,0,5,0,,99999,0
260206_1528,317,subjects,1,1,158,0,1,0,0,1,0,0,1,0,5ec1129f45a5365297e63600,5,1,2,-1,50.9473684210526,0.014367816091954,-1,-1,0,99999,99999,0,99999,99999,0,1,0,99999,0,99999,99999,99999,205,10,3,2,99999,0,99999,1,-99,-99,-99,0,0,0,0,-99,9,0,2,0,8,99999,99999,-99,8,99999,99999,99999,99999,1,1,1,0,99999,99999,99999,2,1,2,1,0,99999,0,99999,99999,9,1,0,-99,18,-99,1,1,1,1,1,1,1,1,0,0,0,0,0,0,0,0,1,2,3,8,5,4,7,6,3,7,2,4,4,8,4,5,1,0,99999,99999,1,99999,1,1,9,99999,0,1,0,0,0,0,0,0,1,0,0,,99999,10,7,10,8,99999,0,40,2,85,99999,7,0,99999,,0,,0,4,360,Very clear instructions,99999,0
260206_1528,319,subjects,1,1,159,0,1,0,0,1,0,1,0,0,6773ddcd48e01d9519ede71e,5,1,2,-1,49.6097915891617,0.0130207538604736,-1,-1,0,99999,99999,0,99999,99999,0,1,0,99999,0,99999,99999,99999,205,10,3,2,99999,0,99999,1,-99,-99,-99,0,0,0,0,-99,9,0,1,0,8,99999,99999,-99,8,99999,99999,99999,99999,0,1,8,0,99999,0,99999,0,0,2,8,10,99999,0,99999,99999,9,1,0,-99,18,-99,0,0,0,0,0,0,0,0,0,0,0,0,0,0,0,0,2,8,7,6,4,5,1,3,7,4,5,6,3,5,8,3,1,-99,99999,99999,0,99999,5,2,8,99999,1,0,0,0,1,0,1,0,1,0,0,,99999,7,7,4,8,99999,0,43,4,35,99999,7,0,99999,,0,,0,5,0,,99999,0
260206_1528,323,subjects,1,1,161,0,1,0,0,1,0,1,0,0,5f3ae136d5f38f7a5f3f6295,5,1,2,-1,52.7911637931034,-0.0194493006993007,-1,-1,0,99999,99999,0,99999,99999,0,1,0,99999,0,99999,99999,99999,205,10,3,2,99999,0,99999,1,-99,-99,-99,0,0,0,0,-99,9,0,2,1,6,99999,99999,-99,7,99999,99999,99999,99999,1,1,1,0,99999,0,99999,2,1,2,1,0,99999,0,99999,99999,9,1,0,-99,18,-99,1,0,0,0,0,0,0,0,0,0,0,0,0,0,0,0,1,7,2,5,4,3,6,8,3,3,1,8,8,5,1,2,1,-99,99999,99999,1,99999,8,1,7,99999,1,0,0,0,0,0,1,0,0,0,0,,99999,0,0,5,7,99999,1,23,2,85,99999,7,0,99999,,0,,0,2,320,no,99999,0
260206_1528,325,subjects,1,1,162,0,1,0,0,1,0,0,1,0,67696d49d386c9789b03b1da,5,1,2,-1,52.5638119537051,-0.0196305366411601,-1,-1,0,99999,99999,0,99999,99999,0,1,0,99999,0,99999,99999,99999,205,10,3,1,99999,0,99999,1,-99,-99,-99,0,0,0,0,-99,9,0,1,0,8,99999,99999,-99,9,99999,99999,99999,99999,1,2,1,0,99999,0,99999,1,-99,-99,-99,-99,0,0,0,99999,9,1,0,-99,18,-99,1,1,1,1,1,1,1,1,0,0,0,0,0,0,0,0,3,8,5,6,2,7,1,4,2,4,4,5,7,4,6,8,1,0,99999,99999,1,99999,8,2,5,99999,1,1,0,0,0,0,1,0,1,0,0,,99999,1,0,4,2,99999,0,59,4,35,99999,7,0,99999,,0,,0,7,225,,99999,0
260206_1528,327,subjects,1,1,163,0,1,0,0,1,0,0,1,0,59d949cf8fd07a000184247e,5,1,2,-1,53.993449599466,0.00464898767605637,-1,-1,0,99999,99999,0,99999,99999,0,1,0,99999,0,99999,99999,99999,205,10,3,1,99999,0,99999,1,-99,-99,-99,0,0,0,0,-99,9,0,2,1,8,99999,99999,-99,8,99999,99999,99999,99999,1,2,1,0,99999,0,99999,1,-99,-99,-99,-99,0,0,0,99999,9,1,0,-99,18,-99,1,0,0,0,1,0,0,0,0,0,0,0,0,0,0,0,3,8,5,6,4,1,2,7,2,4,8,1,8,4,2,4,1,-99,99999,99999,0,99999,8,1,10,99999,1,1,0,0,0,0,1,0,0,0,0,,99999,2,0,10,1,99999,1,41,4,45,99999,7,0,99999,,0,,0,7,255,none,99999,0
260206_1528,329,subjects,1,1,164,0,1,0,0,1,0,1,0,0,6731be489e831394673e6fee,5,1,2,-1,51.7894736842105,-0.00546448087431695,-1,-1,0,99999,99999,0,99999,99999,0,1,0,99999,0,99999,99999,99999,205,10,3,1,99999,0,99999,1,-99,-99,-99,0,0,0,0,-99,9,0,2,1,9,99999,99999,-99,9,99999,99999,99999,99999,1,2,1,0,99999,0,99999,1,-99,-99,-99,-99,0,0,0,99999,9,1,0,-99,18,-99,1,1,1,0,1,0,0,1,0,0,0,0,0,0,0,0,8,2,4,1,6,7,5,3,4,5,8,5,5,6,5,2,1,-99,99999,99999,1,99999,7,1,8,99999,0,1,0,0,0,0,0,0,1,0,0,,99999,8,5,1,6,99999,0.5,20,2,25,99999,7,0,99999,,0,,0,6,0,,99999,0
260206_1528,331,subjects,1,1,165,0,1,0,0,1,0,1,0,0,55e876f25e4d360012cc283d,5,1,2,-1,50.421052631579,-0.00552486187845302,-1,-1,0,99999,99999,0,99999,99999,0,1,0,99999,0,99999,99999,99999,205,10,3,1,99999,0,99999,1,-99,-99,-99,0,0,0,0,-99,9,0,2,0,9,99999,99999,-99,7,99999,99999,99999,99999,1,2,1,0,99999,0,99999,1,-99,-99,-99,-99,0,0,0,99999,9,1,0,-99,18,-99,1,0,1,1,0,1,0,1,0,0,0,0,1,0,1,0,2,6,7,3,4,1,5,8,5,6,4,2,6,3,8,4,1,-99,99999,99999,1,99999,3,2,7,99999,1,1,0,0,0,1,0,0,0,0,0,,99999,6,7,10,7,99999,0,31,1,45,99999,7,0,99999,,0,,0,8,390,,99999,0
260206_1528,333,subjects,1,1,166,0,1,0,0,1,0,1,0,0,5d5a8cbeeb68e00018d85fb7,5,1,2,-1,52.7329638135302,-0.00400004069010418,-1,-1,0,99999,99999,0,99999,99999,0,1,0,99999,0,99999,99999,99999,205,10,3,2,99999,0,99999,1,-99,-99,-99,0,0,0,0,-99,9,0,1,1,9,99999,99999,-99,8,99999,99999,99999,99999,1,1,1,0,99999,0,99999,2,1,2,1,0,99999,0,99999,99999,9,1,0,-99,18,-99,1,1,1,1,1,1,1,1,0,0,0,0,0,0,0,0,8,3,5,7,2,1,4,6,4,2,8,4,5,3,8,5,1,0,99999,99999,1,99999,2,0,7,99999,0,1,0,0,1,1,0,0,0,1,0,,99999,2,1,1,7,99999,1,28,2,35,99999,7,0,99999,,0,,0,1,390,,99999,0
260206_1528,335,subjects,1,1,167,0,1,0,0,1,0,0,1,0,5b17642244127b00013f7f65,5,1,2,-1,53.2604363410028,0.0206107802063454,-1,-1,0,99999,99999,0,99999,99999,0,1,0,99999,0,99999,99999,99999,205,10,3,2,99999,0,99999,1,-99,-99,-99,0,0,0,0,-99,9,0,1,1,6,99999,99999,-99,8,99999,99999,99999,99999,1,2,8,0,99999,0,99999,0,1,2,8,0,99999,0,99999,99999,9,1,0,-99,18,-99,0,0,0,0,0,0,0,0,1,0,0,0,0,0,0,0,1,3,4,6,2,8,5,7,4,5,1,6,3,6,8,3,1,-99,99999,99999,0,99999,5,4,5,99999,1,0,0,0,0,0,0,0,0,0,0,,99999,7,7,7,7,99999,1,40,4,25,99999,7,0,99999,,0,,0,6,0,,99999,0
260206_1528,337,subjects,1,1,168,0,1,0,0,1,0,0,1,0,6978d532e03b49d2072f4538,5,1,2,-1,50.0956011761676,0.0171430315290179,-1,-1,0,99999,99999,0,99999,99999,0,1,0,99999,0,99999,99999,99999,205,10,3,2,99999,0,99999,1,-99,-99,-99,0,0,0,0,-99,9,0,1,0,2,99999,99999,-99,9,99999,99999,99999,99999,0,1,8,0,99999,0,99999,0,0,1,8,10,99999,0,99999,99999,9,1,0,-99,18,-99,0,1,0,0,0,0,0,0,0,0,0,0,0,0,0,0,3,2,4,6,8,5,7,1,3,7,4,5,6,8,5,5,1,-99,99999,99999,0,99999,5,2,2,99999,1,1,1,0,0,0,1,0,1,0,0,,99999,6,2,8,3,99999,1,33,4,55,99999,7,0,99999,,0,,0,2,0,no,99999,0
260206_1528,339,subjects,1,1,169,0,1,0,0,1,0,1,0,0,62aa591a476ebabe28612a92,5,1,2,-1,49.0526315789474,-0.0056497175141243,-1,-1,0,99999,99999,0,99999,99999,0,1,0,99999,0,99999,99999,99999,205,10,3,1,99999,0,99999,1,-99,-99,-99,0,0,0,0,-99,9,0,1,0,10,99999,99999,-99,8,99999,99999,99999,99999,1,2,1,0,99999,0,99999,1,-99,-99,-99,-99,0,0,0,99999,9,1,0,-99,18,-99,1,1,-1,1,1,1,-1,1,0,0,0,0,0,0,0,0,3,5,8,2,1,4,7,6,2,8,-1,5,3,8,-1,5,1,-99,99999,99999,0,99999,7,3,2,99999,0,0,0,0,0,0,0,0,1,0,0,,99999,9,8,8,8,99999,0,36,5,55,99999,7,0,99999,,0,,0,5,0,,99999,0
260206_1528,341,subjects,1,1,170,0,1,0,0,1,0,1,0,0,602a2911a73ba046955f6c58,5,1,2,-1,50.1799040511727,-0.00787401574803148,-1,-1,0,99999,99999,0,99999,99999,0,1,0,99999,0,99999,99999,99999,205,10,3,2,99999,0,99999,1,-99,-99,-99,0,0,0,0,-99,9,0,2,1,8,99999,99999,-99,6,99999,99999,99999,99999,0,1,1,0,99999,0,99999,0,0,2,1,0,99999,0,99999,99999,9,1,0,-99,18,-99,0,1,0,0,1,0,1,0,1,0,1,1,0,0,0,0,2,8,7,3,4,1,5,6,4,4,1,5,8,4,8,1,1,-99,99999,99999,0,99999,4,2,0,99999,0,1,0,0,1,0,1,0,1,0,0,,99999,1,3,10,5,99999,1,56,4,35,99999,7,0,99999,,0,,0,3,300,no,99999,0
260206_1528,343,subjects,1,1,171,0,1,0,0,1,0,0,1,0,574061ecd700ea000ef44a8f,5,1,2,-1,51.7378770237392,-0.00833336512247723,-1,-1,0,99999,99999,0,99999,99999,0,1,0,99999,0,99999,99999,99999,205,10,3,1,99999,0,99999,1,-99,-99,-99,0,0,0,0,-99,9,0,1,1,10,99999,99999,-99,8,99999,99999,99999,99999,1,2,1,0,99999,0,99999,1,-99,-99,-99,-99,0,0,0,99999,9,1,0,-99,18,-99,0,0,1,0,0,0,0,1,0,1,0,0,0,0,0,0,4,7,6,3,2,1,8,5,5,2,5,4,8,8,4,4,1,-99,99999,99999,0,99999,4,2,4,99999,1,0,1,1,1,0,0,0,1,0,0,,99999,7,6,10,10,99999,0,35,3,5,99999,7,0,99999,,0,,0,2,525,,99999,0
260206_1528,347,subjects,1,1,173,0,1,0,0,1,0,1,0,0,5bfe0d18e373c90001b57c71,5,1,2,-1,52.1229659763314,-0.00321852992957744,-1,-1,0,99999,99999,0,99999,99999,0,1,0,99999,0,99999,99999,99999,205,10,3,2,99999,0,99999,1,-99,-99,-99,0,0,0,0,-99,9,0,1,0,1,99999,99999,-99,6,99999,99999,99999,99999,1,0,1,0,99999,0,99999,0,1,0,1,0,99999,0,99999,99999,9,1,0,-99,18,-99,1,1,1,1,1,1,1,1,0,0,0,0,0,0,0,0,2,5,1,4,6,8,3,7,5,8,3,8,5,4,2,4,1,0,99999,99999,1,99999,4,0,8,99999,0,1,0,0,0,0,0,0,0,0,1,I'm very indecisive and would 'freeze' and run out of time.,99999,0,2,10,8,99999,1,61,4,15,99999,7,0,99999,,0,,0,3,525,Interesting!,99999,0
260206_1528,349,subjects,1,1,174,0,1,0,0,1,0,1,0,0,6659c64e90a02f94c92e944d,5,1,2,-1,50.2735394488324,-0.0184682598550811,-1,-1,0,99999,99999,0,99999,99999,0,1,0,99999,0,99999,99999,99999,205,10,3,2,99999,0,99999,1,-99,-99,-99,0,0,0,0,-99,9,0,1,1,10,99999,99999,-99,10,99999,99999,99999,99999,0,1,1,0,99999,0,99999,0,0,2,1,0,99999,0,99999,99999,9,1,0,-99,18,-99,1,0,1,1,1,1,1,1,0,1,0,0,0,0,0,0,8,3,1,6,2,4,5,7,4,8,3,5,5,8,8,4,1,0,99999,99999,1,99999,5,1,7,99999,0,1,0,0,0,1,0,0,1,0,0,,99999,7,8,9,9,99999,1,26,4,-1,99999,7,0,99999,,0,,0,8,0,,99999,0
260206_1528,351,subjects,1,1,175,0,1,0,0,1,0,1,0,0,6978c747e184ed4d0341f8a2,5,1,2,-1,52.9784482758621,-0.021373820754717,-1,-1,0,99999,99999,0,99999,99999,0,1,0,99999,0,99999,99999,99999,205,10,3,1,99999,0,99999,1,-99,-99,-99,0,0,0,0,-99,9,0,1,1,9,99999,99999,-99,9,99999,99999,99999,99999,1,2,1,0,99999,0,99999,1,-99,-99,-99,-99,0,0,0,99999,9,1,0,-99,18,-99,1,1,1,1,1,1,1,1,0,0,0,0,0,0,0,0,6,1,5,3,8,7,4,2,5,3,8,2,4,4,8,5,1,0,99999,99999,1,99999,9,1,7,99999,0,1,0,0,0,1,0,0,1,1,0,,99999,3,2,0,5,99999,1,22,4,35,99999,7,0,99999,,0,,0,4,625,,99999,0
260206_1528,353,subjects,1,1,176,0,1,0,0,1,0,0,1,0,6765b7480caf6c253ee85ccc,7,-1,-1,-1,-1,-1,-1,-1,0,99999,99999,55,0,0,0,0,0,0,0,0,0,0,-99,-99,-99,1,0,0,0,0,-99,-99,-99,0,0,0,1,-99,9,1,0,0,0,0,0,-99,-99,0,0,0,0,-99,-99,-99,-99,0,0,0,0,-99,-99,-99,-99,0,0,0,0,1,1,1,-99,0,1,0,0,0,0,0,0,0,0,0,0,0,0,0,0,0,0,0,0,0,0,0,0,0,0,0,0,0,0,0,0,0,0,0,0,0,0,-99,0,0,0,0,0,0,0,0,0,0,0,0,0,0,0,0,,0,0,0,0,0,0,0,0,0,0,0,-99,-99,0,,0,,0,2,-99,,0,0
260206_1528,353,subjects,1,1,176,0,1,0,0,1,1,0,1,0,6765b7480caf6c253ee85ccc,7,-1,-1,-1,-1,-1,-1,-1,0,99999,99999,55,0,0,0,0,0,0,0,0,0,0,-99,-99,-99,1,0,0,0,0,-99,-99,-99,0,0,0,1,-99,9,1,0,0,0,0,0,-99,-99,0,0,0,0,-99,-99,-99,-99,0,0,0,0,-99,-99,-99,-99,0,0,0,0,1,1,1,-99,0,1,0,0,0,0,0,0,0,0,0,0,0,0,0,0,0,0,0,0,0,0,0,0,0,0,0,0,0,0,0,0,0,0,0,0,0,0,-99,0,0,0,0,0,0,0,0,0,0,0,0,0,0,0,0,,0,0,0,0,0,0,0,0,0,0,0,-99,-99,0,,0,,0,4,-99,,0,0
260206_1528,355,subjects,1,1,177,0,1,0,0,1,0,1,0,0,58a9acb966e4640001c53a7f,5,1,2,-1,51.3615400712569,-0.0151515151515151,-1,-1,0,99999,99999,0,99999,99999,0,1,0,99999,0,99999,99999,99999,205,10,3,2,99999,0,99999,1,-99,-99,-99,0,0,0,0,-99,9,0,1,0,6,99999,99999,-99,7,99999,99999,99999,99999,1,1,1,0,99999,0,99999,2,1,2,1,0,99999,0,99999,99999,9,1,0,-99,18,-99,1,0,0,1,0,1,1,0,0,1,1,0,0,0,0,0,8,4,5,7,3,6,1,2,4,2,5,4,5,5,3,7,1,-99,99999,99999,1,99999,5,2,8,99999,0,1,0,0,0,0,0,0,1,0,0,,99999,7,7,10,7,99999,0,35,4,35,99999,7,0,99999,,0,,0,2,0,"I understood the task, but the instructions could have been more concise.",99999,0
260206_1528,357,subjects,1,1,178,0,1,0,0,1,0,0,1,0,682b3f63d0e2c4eff64fe664,5,1,2,-1,50.9561727335165,0.012725830078125,-1,-1,0,99999,99999,0,99999,99999,0,1,0,99999,0,99999,99999,99999,205,10,3,1,99999,0,99999,1,-99,-99,-99,0,0,0,0,-99,9,0,1,0,8,99999,99999,-99,7,99999,99999,99999,99999,1,2,1,0,99999,0,99999,1,-99,-99,-99,-99,0,0,0,99999,9,1,0,-99,18,-99,0,0,0,0,0,0,0,0,0,0,0,0,0,0,0,0,8,7,6,4,2,1,5,3,4,4,5,6,4,4,1,6,1,-99,99999,99999,1,99999,2,0,6,99999,0,0,0,0,0,0,0,0,0,0,1,I'm just happy to see what happens,99999,6,5,10,8,99999,0,71,4,35,99999,7,0,99999,,0,,0,1,330,it was straightforward,99999,0
260206_1528,359,subjects,1,1,179,0,1,0,0,1,0,0,1,0,5a9fa90f873cda00010d29d8,5,1,2,-1,51.9945054945055,0.0159416751585145,-1,-1,0,99999,99999,0,99999,99999,0,1,0,99999,0,99999,99999,99999,205,10,1,1,99999,0,99999,-99,1,205,10,99999,99999,0,0,-99,9,0,2,0,6,99999,99999,-99,9,99999,99999,99999,99999,1,2,1,0,99999,0,99999,1,-99,-99,-99,-99,0,0,0,99999,9,1,0,-99,18,-99,0,1,0,0,1,0,0,1,0,0,0,0,0,0,0,0,8,5,4,3,7,6,1,2,6,8,3,4,4,6,3,7,1,-99,99999,99999,1,99999,6,2,6,99999,0,1,0,0,0,1,1,0,0,0,0,,99999,6,8,8,9,99999,0,26,1,25,99999,7,0,99999,,0,,0,1,0,It was well done,99999,0
260206_1528,361,subjects,1,1,180,0,1,0,0,1,0,1,0,0,59e7276d5de9b000017ed1c1,5,1,2,-1,50.6329113924051,0,-1,-1,0,99999,99999,0,99999,99999,0,1,0,99999,0,99999,99999,99999,205,10,3,2,99999,0,99999,1,-99,-99,-99,0,0,0,0,-99,9,0,1,0,8,99999,99999,-99,8,99999,99999,99999,99999,1,1,1,0,99999,0,99999,0,1,2,8,0,99999,0,99999,99999,9,1,0,-99,18,-99,0,1,1,1,0,0,0,0,0,0,0,0,0,0,0,0,1,5,3,4,6,7,2,8,1,8,2,8,6,6,4,3,1,-99,99999,99999,0,99999,4,2,1,99999,1,1,0,0,1,0,0,0,0,0,0,,99999,8,8,10,10,99999,0,44,3,-1,99999,7,0,99999,,0,,0,3,0,,99999,0
